sounds,syll,stress_unstress,suffix,present_past,corrAns,trigger_item,trigger_senonset,trigger_verbsonset,trigger_1_F0,trigger_suffix,trigger_2_F0,ID_item,ID_senonset,ID_verbonset,ID_1_F0,ID_suffix,ID_2_F0,ms_senonset,ms_verbonset,ms_1_F0,ms_suffix,ms_2_F0,file_name,sentence,cond,combo,thisN,thisTrialN,thisRepN,key_resp_4.keys,key_resp_4.corr,key_resp_4.rt,key_resp_4.duration,key_resp_5.keys,item_id,key_resp_2.keys,key_resp_2.corr,key_resp_2.rt,key_resp_2.duration,key_resp_5.rt,key_resp_5.duration,practice_trials.thisRepN,practice_trials.thisTrialN,practice_trials.thisN,practice_trials.thisIndex,experimental_trials.thisRepN,experimental_trials.thisTrialN,experimental_trials.thisN,experimental_trials.thisIndex,thisRow.t,notes,instructions.started,instr.started,key_resp.started,instructions.stopped,key_resp.keys,key_resp.rt,key_resp.duration,init_practice.started,init_practice.stopped,test_practice.started,test_sound_2.started,key_resp_4.started,polygon.started,serialPort_item_2.started,serialPort_item_2.stopped,test_sound_2.stopped,test_practice.stopped,practice_trials.key_resp_4.keys,practice_trials.key_resp_4.corr,practice_trials.key_resp_4.rt,practice_trials.key_resp_4.duration,takeabreak.started,takeabreak.stopped,practice_trials.key_resp_5.keys,init_trials.started,init_trials.stopped,test.started,test_sound.started,key_resp_2.started,polygon_2.started,serialPort_item.started,serialPort_item.stopped,test_sound.stopped,test.stopped,experimental_trials.key_resp_2.keys,experimental_trials.key_resp_2.corr,experimental_trials.key_resp_2.rt,experimental_trials.key_resp_2.duration,experimental_trials.key_resp_5.keys,text_3.started,key_resp_5.started,experimental_trials.key_resp_5.rt,experimental_trials.key_resp_5.duration,Thanks.started,text_2.started,key_resp_thanks.started,Thanks.stopped,key_resp_thanks.keys,key_resp_thanks.rt,key_resp_thanks.duration,participant,session,date,expName,psychopyVersion,frameRate,expStart,
,,,,,,,,,,,,,,,,,,,,,,,,,,,,,,,,,,,,,,,,,,,,,,,,,,,,0.002744400000665337,0.010063800029456615,0.010063800029456615,2752.477392699977,space,2752.446090600046,None,,,,,,,,,,,,,,,,,,,,,,,,,,,,,,,,,,,,,,,,,,,,1_L1,001,2025-05-05_09h30.26.756,LangExperimentstress,2024.2.4,59.96440511637471,2025-05-05 09h30.35.163719 -0400,
,,,,,,,,,,,,,,,,,,,,,,,,,,,,,,,,,,,,,,,,,,,,,,,,,,,,,,,,,,,2752.47754729999,2752.478640699992,,,,,,,,,,,,,,,,,,,,,,,,,,,,,,,,,,,,,,,,,,1_L1,001,2025-05-05_09h30.26.756,LangExperimentstress,2024.2.4,59.96440511637471,2025-05-05 09h30.35.163719 -0400,
sounds/p3c_saltar.wav,CVC,Unstressed,Match,past,num_2,0.0,0.205513,0.8629519999999999,0.984841,1.219715,1.27,101,30,31,32,33,34,0.005513,0.662952,0.784841,1.019715,1.07,p3c_saltar.wav,p3,c,p3c,0,0,0,right,0,2.3652844000025652,None,None,,,,,,,,0,0,0,2,,,,,2752.5073331000167,,,,,,,,,,,2752.496457399975,2752.5061978999993,2752.5073331000167,2752.5073331000167,0.017816699983086437,0.029260799987241626,2754.58940539998,2754.8743159000296,right,0,2.3652844000025652,None,2754.8774627000093,2754.8775280999835,None,,,,,,,,,,,,,,,,,,,,,,,,,,,1_L1,001,2025-05-05_09h30.26.756,LangExperimentstress,2024.2.4,59.96440511637471,2025-05-05 09h30.35.163719 -0400,
sounds/p2b_cortar.wav,CVC,Unstressed,Mismatch,present,num_1,0.0,0.205513,0.8629519999999999,0.984841,1.219715,1.27,101,20,21,22,23,24,0.005513,0.662952,0.784841,1.019715,1.07,p2b_cortar.wav,p2,b,p2b,1,1,0,left,0,2.609630200022366,None,None,,,,,,,,0,1,1,1,,,,,2754.895226199995,,,,,,,,,,,2754.8833200000226,2754.888877266673,2754.895226199995,2754.895226199995,0.005803200008813292,0.01853790000313893,2757.1561007000273,2757.508673299977,left,0,2.609630200022366,None,2757.512179900019,2757.5122497000266,None,,,,,,,,,,,,,,,,,,,,,,,,,,,1_L1,001,2025-05-05_09h30.26.756,LangExperimentstress,2024.2.4,59.96440511637471,2025-05-05 09h30.35.163719 -0400,
sounds/p4d_cortar.wav,CVC,Stressed,Mismatch,past,num_2,0.0,0.205513,0.8629519999999999,0.984841,1.219715,1.27,101,40,41,42,43,44,0.005513,0.662952,0.784841,1.019715,1.07,p4d_cortar.wav,p4,d,p4d,2,2,0,right,0,3.0629741000011563,None,None,,,,,,,,0,2,2,3,,,,,2757.528975300025,,,,,,,,,,,2757.518938000023,2757.5227504666586,2757.528975300025,2757.528975300025,0.006712000002153218,0.017598799953702837,2760.040375499986,2760.608788900019,right,0,3.0629741000011563,None,2760.6130700000213,2760.6131590000005,None,,,,,,,,,,,,,,,,,,,,,,,,,,,1_L1,001,2025-05-05_09h30.26.756,LangExperimentstress,2024.2.4,59.96440511637471,2025-05-05 09h30.35.163719 -0400,
sounds/p1a_saltar.wav,CVC,Stressed,Match,present,num_1,0.0,0.205513,0.8629519999999999,0.984841,1.219715,1.27,101,10,11,12,13,14,0.005513,0.662952,0.784841,1.019715,1.07,p1a_saltar.wav,p1,a,p1a,3,3,0,left,0,2.959854600019753,None,None,,,,,,,,0,3,3,0,,,,,2760.632642599987,,,,,,,,,,,2760.6212465999997,2760.6228822666494,2760.632642599987,2760.632642599987,0.008180700009688735,0.020583199977409095,2762.8728747999994,2763.6086451999727,left,0,2.959854600019753,None,2763.6117512999917,2763.6118372000055,None,,,,,,,,,,,,,,,,,,,,,,,,,,,1_L1,001,2025-05-05_09h30.26.756,LangExperimentstress,2024.2.4,59.96440511637471,2025-05-05 09h30.35.163719 -0400,
,,,,,,,,,,,,,,,,,,,,,,,,,,,,,,,,,,,,,,,,,,,,,,,,,,,,2763.612061600026,2763.6227147000027,2763.6227147000027,2811.3100469000055,space,47.67381680000108,None,,,,,,,,,,,,,,,,,,,,,,,,,,,,,,,,,,,,,,,,,,,,1_L1,001,2025-05-05_09h30.26.756,LangExperimentstress,2024.2.4,59.96440511637471,2025-05-05 09h30.35.163719 -0400,
,,,,,,,,,,,,,,,,,,,,,,,,,,,,,,,,,,,,,,,,,,,,,,,,,,,,,,,,,,,,,,,,,,,,,,,,,,,,2811.310145700001,2811.311095700017,,,,,,,,,,,,,,,,,,,,,,,,,1_L1,001,2025-05-05_09h30.26.756,LangExperimentstress,2024.2.4,59.96440511637471,2025-05-05 09h30.35.163719 -0400,
sounds/23a_tomar.wav,CVC,Stressed,Match,present,num_1,0.0,0.2,0.9453179615162032,0.95,1.08,1.158644495081018,101,10,11,12,13,14,0,0.745317961516203,0.75,0.88,0.958644495081018,23a_tomar.wav,,a,,0,0,0,,,,,None,23,left,0,2.3155124000040814,None,,,,,,,0,0,0,39,2811.341280599998,,,,,,,,,,,,,,,,,,,,,,,2813.6641226999927,2813.66421170003,,,,2811.330044500006,2811.340716033309,2811.341280599998,2811.341280599998,0.018935500003863126,0.030986000027041882,2813.2407489999896,2813.660112900019,left,0,2.3155124000040814,None,None,,,,,,,,,,,,1_L1,001,2025-05-05_09h30.26.756,LangExperimentstress,2024.2.4,59.96440511637471,2025-05-05 09h30.35.163719 -0400,
sounds/05a_fumar.wav,CVC,Stressed,Match,present,num_1,0.0,0.2,1.15,1.36712555700231,1.48,1.56308830295138,101,10,11,12,13,14,0,0.95,1.16712555700231,1.28,1.36308830295138,05a_fumar.wav,,a,,1,1,0,,,,,None,5,left,0,2.572442399978172,None,,,,,,,0,1,1,38,2813.68372239999,,,,,,,,,,,,,,,,,,,,,,,2816.2627196999965,2816.262795799994,,,,2813.672057299991,2813.674175866651,2813.68372239999,2813.68372239999,0.007959600014146417,0.020544799976050854,2816.040723000013,2816.2594906000304,left,0,2.572442399978172,None,None,,,,,,,,,,,,1_L1,001,2025-05-05_09h30.26.756,LangExperimentstress,2024.2.4,59.96440511637471,2025-05-05 09h30.35.163719 -0400,
sounds/08d_filtrar.wav,CVC,Stressed,Mismatch,past,num_2,0.0,0.2,0.7526856695589441,0.87808115762362,1.118901843962886,1.172598812485867,101,40,41,42,43,44,0,0.552685669558944,0.67808115762362,0.918901843962886,0.972598812485867,08d_filtrar.wav,,d,,2,2,0,,,,,None,8,right,0,2.1776206999784335,None,,,,,,,0,2,2,15,2816.279152699979,,,,,,,,,,,,,,,,,,,,,,,2818.4653432000196,2818.4654296999797,,,,2816.2686692000134,2816.2738406666945,2816.279152699979,2816.279152699979,0.00590559997363016,0.016988499963190407,2818.041581999976,2818.460491899983,right,0,2.1776206999784335,None,None,,,,,,,,,,,,1_L1,001,2025-05-05_09h30.26.756,LangExperimentstress,2024.2.4,59.96440511637471,2025-05-05 09h30.35.163719 -0400,
sounds/06d_soplar.wav,CVC,Stressed,Mismatch,past,num_2,0.0,0.2,0.761291666666666,0.8899999999999999,1.102139687590422,1.166665581687644,101,40,41,42,43,44,0,0.561291666666666,0.69,0.902139687590422,0.966665581687644,06d_soplar.wav,,d,,3,3,0,,,,,None,6,right,0,2.237826500029769,None,,,,,,,0,3,3,16,2818.4833763000206,,,,,,,,,,,,,,,,,,,,,,,2820.7297019999824,2820.7297894000076,,,,2818.471860599995,2818.4746242666774,2818.4833763000206,2818.4833763000206,0.0065033999853767455,0.019083600025624037,2820.374991299992,2820.7264378999826,right,0,2.237826500029769,None,None,,,,,,,,,,,,1_L1,001,2025-05-05_09h30.26.756,LangExperimentstress,2024.2.4,59.96440511637471,2025-05-05 09h30.35.163719 -0400,
sounds/31d_tocar.wav,CVC,Stressed,Mismatch,past,num_2,0.0,0.2,0.8493931756807,0.8650112062639721,1.006860547391531,1.049162047334928,101,40,41,42,43,44,0,0.6493931756807,0.665011206263972,0.806860547391531,0.849162047334928,31d_tocar.wav,,d,,4,4,0,,,,,None,31,right,0,2.2124508999986574,None,,,,,,,0,4,4,30,2820.7473532999866,,,,,,,,,,,,,,,,,,,,,,,2822.9807933000266,2822.980884300021,,,,2820.7365967999795,2820.740679266692,2820.7473532999866,2820.7473532999866,0.006821200018748641,0.01850360003300011,2822.6573558999808,2822.976740000013,right,0,2.2124508999986574,None,None,,,,,,,,,,,,1_L1,001,2025-05-05_09h30.26.756,LangExperimentstress,2024.2.4,59.96440511637471,2025-05-05 09h30.35.163719 -0400,
sounds/12a_matar.wav,CVC,Stressed,Match,present,num_1,0.0,0.2,0.8400000000000001,0.96,1.17307472511574,1.186647497106481,101,10,11,12,13,14,0,0.64,0.76,0.97307472511574,0.986647497106481,12a_matar.wav,,a,,5,5,0,,,,,None,12,left,0,2.2646372000453994,None,,,,,,,0,5,5,25,2822.999774100026,,,,,,,,,,,,,,,,,,,,,,,2825.2805512999767,2825.2806604999932,,,,2822.9874358000234,2822.990910066645,2822.999774100026,2822.999774100026,0.006580199988093227,0.020205099950544536,2825.1909206000273,2825.276687500009,left,0,2.2646372000453994,None,None,,,,,,,,,,,,1_L1,001,2025-05-05_09h30.26.756,LangExperimentstress,2024.2.4,59.96440511637471,2025-05-05 09h30.35.163719 -0400,
sounds/02c_buscar.wav,CVC,Unstressed,Match,past,num_2,0.0,0.2,0.8700000000000001,1.07,1.26,1.40703946035879,101,30,31,32,33,34,0,0.67,0.87,1.06,1.20703946035879,02c_buscar.wav,,c,,6,6,0,,,,,None,2,right,0,2.302726600028109,None,,,,,,,0,6,6,34,2825.2975177000044,,,,,,,,,,,,,,,,,,,,,,,2827.613685899996,2827.613776399987,,,,2825.287123100017,2825.290894066686,2825.2975177000044,2825.2975177000044,0.006481899996288121,0.01773060002597049,2827.440714400029,2827.6103359999834,right,0,2.302726600028109,None,None,,,,,,,,,,,,1_L1,001,2025-05-05_09h30.26.756,LangExperimentstress,2024.2.4,59.96440511637471,2025-05-05 09h30.35.163719 -0400,
sounds/27c_tirar.wav,CVC,Unstressed,Match,past,num_2,0.0,0.2,0.8119442057291659,0.8307495153356481,0.9885306495949072,0.998621303530092,101,30,31,32,33,34,0,0.611944205729166,0.630749515335648,0.788530649594907,0.798621303530092,27c_tirar.wav,,c,,7,7,0,,,,,None,27,right,0,2.1048322000424378,None,,,,,,,0,7,7,10,2827.63174099999,,,,,,,,,,,,,,,,,,,,,,,2829.744541299995,2829.7445835000253,,,,2827.6205769000226,2827.6243267666473,2827.63174099999,2827.63174099999,0.006824899988714606,0.018996300001163036,2829.6410841000034,2829.7419904000126,right,0,2.1048322000424378,None,None,,,,,,,,,,,,1_L1,001,2025-05-05_09h30.26.756,LangExperimentstress,2024.2.4,59.96440511637471,2025-05-05 09h30.35.163719 -0400,
sounds/24d_mirar.wav,CVC,Stressed,Mismatch,past,num_2,0.0,0.2,0.71,0.8119545789930551,0.9389863642939812,0.9746780743634248,101,40,41,42,43,44,0,0.51,0.611954578993055,0.738986364293981,0.774678074363425,24d_mirar.wav,,d,,8,8,0,,,,,None,24,right,0,2.041770900017582,None,,,,,,,0,8,8,11,2829.7589294000063,,,,,,,,,,,,,,,,,,,,,,,2831.8148417000193,2831.814943799982,,,,2829.748456000001,2829.7573912666453,2829.7589294000063,2829.7589294000063,0.0038886000402271748,0.015246700029820204,2831.474583700008,2831.8102954999777,right,0,2.041770900017582,None,None,,,,,,,,,,,,1_L1,001,2025-05-05_09h30.26.756,LangExperimentstress,2024.2.4,59.96440511637471,2025-05-05 09h30.35.163719 -0400,
sounds/39b_manchar.wav,CVC,Unstressed,Mismatch,present,num_1,0.0,0.2,0.81,0.91203755787037,1.140584317129629,1.2139708912037,101,20,21,22,23,24,0,0.61,0.71203755787037,0.940584317129629,1.0139708912037,39b_manchar.wav,,b,,9,9,0,,,,,space,39,left,0,2.575119099987205,None,8.024361699994188,None,,,,,0,9,9,7,2831.8347246000194,,,,,,,,,,,,,,,,,,,,,,,2834.4307298000203,2842.4777161999955,,,,2831.8233114000177,2831.8241927666863,2831.8347246000194,2831.8347246000194,0.008454700000584126,0.02080150000983849,2834.0907113000285,2834.4271942999912,left,0,2.575119099987205,None,space,2834.441264000023,2834.441264000023,8.024361699994188,None,,,,,,,,1_L1,001,2025-05-05_09h30.26.756,LangExperimentstress,2024.2.4,59.96440511637471,2025-05-05 09h30.35.163719 -0400,
sounds/35b_secar.wav,CVC,Unstressed,Mismatch,present,num_1,0.0,0.2,0.8990044921875,1.025708658854166,1.179689416956018,1.20652606336805,101,20,21,22,23,24,0,0.6990044921875,0.825708658854166,0.979689416956018,1.00652606336805,35b_secar.wav,,b,,10,10,0,,,,,None,35,left,0,2.1452349000028335,None,,,,,,,0,10,10,5,2842.4955741000012,,,,,,,,,,,,,,,,,,,,,,,2844.6475296000135,2844.6476418999955,,,,2842.4851661000284,2842.4919212666614,2842.4955741000012,2842.4955741000012,0.0074155000038445,0.018672899983357638,2844.6413770000217,2844.6439005000284,left,0,2.1452349000028335,None,None,,,,,,,,,,,,1_L1,001,2025-05-05_09h30.26.756,LangExperimentstress,2024.2.4,59.96440511637471,2025-05-05 09h30.35.163719 -0400,
sounds/16a_llevar.wav,CVC,Stressed,Match,present,num_1,0.0,0.2,0.929084516317274,0.964936524692279,1.08,1.131864014418682,101,10,11,12,13,14,0,0.729084516317274,0.764936524692279,0.88,0.931864014418682,16a_llevar.wav,,a,,11,11,0,,,,,None,16,left,0,1.9943835000158288,None,,,,,,,0,11,11,21,2844.66342430003,,,,,,,,,,,,,,,,,,,,,,,2846.6651078999857,2846.6651950000087,,,,2844.653447300021,2844.6580436666886,2844.66342430003,2844.66342430003,0.005821500031743199,0.016385800030548126,2846.5746593999793,2846.661749700026,left,0,1.9943835000158288,None,None,,,,,,,,,,,,1_L1,001,2025-05-05_09h30.26.756,LangExperimentstress,2024.2.4,59.96440511637471,2025-05-05 09h30.35.163719 -0400,
sounds/25b_ganar.wav,CVC,Unstressed,Mismatch,present,num_1,0.0,0.2,1.152097938368055,1.15990068760488,1.28904165650454,1.37272500435153,101,20,21,22,23,24,0,0.952097938368055,0.95990068760488,1.08904165650454,1.17272500435153,25b_ganar.wav,,b,,12,12,0,,,,,None,25,left,0,2.3962909000110812,None,,,,,,,0,12,12,8,2846.6841821999988,,,,,,,,,,,,,,,,,,,,,,,2849.097905099974,2849.0980003000004,,,,2846.6736544999876,2846.6754397666705,2846.6841821999988,2846.6841821999988,0.008492399996612221,0.02004449995001778,2849.024464600021,2849.09454239998,left,0,2.3962909000110812,None,None,,,,,,,,,,,,1_L1,001,2025-05-05_09h30.26.756,LangExperimentstress,2024.2.4,59.96440511637471,2025-05-05 09h30.35.163719 -0400,
sounds/04c_plantar.wav,CVC,Unstressed,Match,past,num_2,0.0,0.2,0.862877574458911,0.9343518689653568,1.20493812332404,1.21897569287037,101,30,31,32,33,34,0,0.662877574458911,0.734351868965357,1.00493812332404,1.01897569287037,04c_plantar.wav,,c,,13,13,0,,,,,None,4,right,0,1.999644699972123,None,,,,,,,0,13,13,9,2849.11346209998,,,,,,,,,,,,,,,,,,,,,,,2851.137047600001,2851.137086100003,,,,2849.1034282000037,2849.108339666684,2849.11346209998,2849.11346209998,0.005439099972136319,0.01641330000711605,,2851.1346608999884,right,0,1.999644699972123,None,None,,,,,,,,,,,,1_L1,001,2025-05-05_09h30.26.756,LangExperimentstress,2024.2.4,59.96440511637471,2025-05-05 09h30.35.163719 -0400,
sounds/33b_culpar.wav,CVC,Unstressed,Mismatch,present,num_1,0.0,0.2,0.8606178431336959,0.869103678029107,1.109891641372144,1.131540467434179,101,20,21,22,23,24,0,0.660617843133696,0.669103678029107,0.909891641372144,0.931540467434179,33b_culpar.wav,,b,,14,14,0,,,,,None,33,left,0,2.390453699976206,None,,,,,,,0,14,14,35,2851.1532841000007,,,,,,,,,,,,,,,,,,,,,,,2853.564824800007,2853.5649112000247,,,,2851.142484700016,2851.1583832333063,2851.1532841000007,2851.1532841000007,0.005461299966555089,0.017415499954950064,2853.3248972999863,2853.5605912000174,left,0,2.390453699976206,None,None,,,,,,,,,,,,1_L1,001,2025-05-05_09h30.26.756,LangExperimentstress,2024.2.4,59.96440511637471,2025-05-05 09h30.35.163719 -0400,
sounds/15b_partir.wav,CVC,Unstressed,Mismatch,present,num_1,0.0,0.2,0.826865400752314,0.842973894883327,1.1042888772729471,1.120815958498066,101,20,21,22,23,24,0,0.626865400752314,0.642973894883327,0.904288877272947,0.920815958498066,15b_partir.wav,,b,,15,15,0,,,,,None,15,left,0,2.6636461999733,None,,,,,,,0,15,15,22,2853.584786900028,,,,,,,,,,,,,,,,,,,,,,,2856.264732600015,2856.264820499986,,,,2853.5721843999927,2853.5749255666783,2853.584786900028,2853.584786900028,0.007293699949514121,0.02121819998137653,2855.6416585000115,2856.2612261999748,left,0,2.6636461999733,None,None,,,,,,,,,,,,1_L1,001,2025-05-05_09h30.26.756,LangExperimentstress,2024.2.4,59.96440511637471,2025-05-05 09h30.35.163719 -0400,
sounds/26a_bajar.wav,CVC,Stressed,Match,present,num_1,0.0,0.2,0.77,0.8999999999999999,1.03,1.171181705729166,101,10,11,12,13,14,0,0.57,0.7,0.83,0.971181705729166,26a_bajar.wav,,a,,16,16,0,,,,,None,26,left,0,2.2113036999944597,None,,,,,,,0,16,16,13,2856.284710099979,,,,,,,,,,,,,,,,,,,,,,,2858.51528599998,2858.5153790999902,,,,2856.273114599986,2856.2753268666606,2856.284710099979,2856.284710099979,0.008370600000489503,0.020941399969160557,2858.359066099976,2858.5111297999974,left,0,2.2113036999944597,None,None,,,,,,,,,,,,1_L1,001,2025-05-05_09h30.26.756,LangExperimentstress,2024.2.4,59.96440511637471,2025-05-05 09h30.35.163719 -0400,
sounds/40c_gastar.wav,CVC,Unstressed,Match,past,num_2,0.0,0.2,0.8300000000000001,0.8400000000000001,1.163436328125,1.183149609375,101,30,31,32,33,34,0,0.63,0.64,0.963436328125,0.983149609375,40c_gastar.wav,,c,,17,17,0,,,,,None,40,right,0,2.102425499993842,None,,,,,,,0,17,17,0,2858.5299697999726,,,,,,,,,,,,,,,,,,,,,,,2860.647344099998,2860.647447000025,,,,2858.5202073000255,2858.5250002666767,2858.5299697999726,2858.5299697999726,0.0048201000317931175,0.015385800041258335,2860.641722499975,2860.644100299978,right,0,2.102425499993842,None,None,,,,,,,,,,,,1_L1,001,2025-05-05_09h30.26.756,LangExperimentstress,2024.2.4,59.96440511637471,2025-05-05 09h30.35.163719 -0400,
sounds/34c_formar.wav,CVC,Unstressed,Match,past,num_2,0.0,0.2,0.876373676215277,0.992687651909722,1.14,1.26319767795138,101,30,31,32,33,34,0,0.676373676215277,0.792687651909722,0.94,1.06319767795138,34c_formar.wav,,c,,18,18,0,,,,,None,34,right,0,2.4161910000257194,None,,,,,,,0,18,18,2,2860.6642794000218,,,,,,,,,,,,,,,,,,,,,,,2863.0969089000137,2863.096984100004,,,,2860.6536401999765,2860.658389166642,2860.6642794000218,2860.6642794000218,0.006212199979927391,0.017428599996492267,2862.9084229000146,2863.0939952000044,right,0,2.4161910000257194,None,None,,,,,,,,,,,,1_L1,001,2025-05-05_09h30.26.756,LangExperimentstress,2024.2.4,59.96440511637471,2025-05-05 09h30.35.163719 -0400,
sounds/19a_marcar.wav,CVC,Stressed,Match,present,num_1,0.0,0.2,0.8400000000000001,0.97,1.245718359375,1.273519140625,101,10,11,12,13,14,0,0.64,0.77,1.045718359375,1.073519140625,19a_marcar.wav,,a,,19,19,0,,,,,space,19,left,0,2.1926402000244707,None,4.659979799995199,None,,,,,0,19,19,19,2863.113273499999,,,,,,,,,,,,,,,,,,,,,,,2865.315129399998,2869.9947180000017,,,,2863.1022100999835,2863.108177966675,2863.113273499999,2863.113273499999,0.005233900039456785,0.017083599988836795,2865.008345099981,2865.3118700999767,left,0,2.1926402000244707,None,space,2865.3250791999744,2865.3250791999744,4.659979799995199,None,,,,,,,,1_L1,001,2025-05-05_09h30.26.756,LangExperimentstress,2024.2.4,59.96440511637471,2025-05-05 09h30.35.163719 -0400,
sounds/14b_borrar.wav,CVC,Unstressed,Mismatch,present,num_1,0.0,0.2,0.72,0.770187630208333,0.851961241319444,0.964399956597222,101,20,21,22,23,24,0,0.52,0.570187630208333,0.651961241319444,0.764399956597222,14b_borrar.wav,,b,,20,20,0,,,,,None,14,left,0,1.9953766000107862,None,,,,,,,0,20,20,20,2870.013345299987,,,,,,,,,,,,,,,,,,,,,,,2872.0151908000116,2872.0152816000045,,,,2870.0019157999777,2870.0087478666724,2870.013345299987,2870.013345299987,0.007158300024457276,0.019426200015004724,2871.975468599994,2872.0115815000026,left,0,1.9953766000107862,None,None,,,,,,,,,,,,1_L1,001,2025-05-05_09h30.26.756,LangExperimentstress,2024.2.4,59.96440511637471,2025-05-05 09h30.35.163719 -0400,
sounds/17d_tragar.wav,CVC,Stressed,Mismatch,past,num_2,0.0,0.2,1.070609360532407,1.117973654513888,1.30915316840277,1.35458539534397,101,40,41,42,43,44,0,0.870609360532407,0.917973654513888,1.10915316840277,1.15458539534397,17d_tragar.wav,,d,,21,21,0,,,,,None,17,right,0,2.293755799997598,None,,,,,,,0,21,21,26,2872.034921500017,,,,,,,,,,,,,,,,,,,,,,,2874.347666800022,2874.347767100029,,,,2872.022481199994,2872.0253299666842,2872.034921500017,2872.034921500017,0.007306800049263984,0.020606600039172918,2874.3419193999725,2874.3444097000174,right,0,2.293755799997598,None,None,,,,,,,,,,,,1_L1,001,2025-05-05_09h30.26.756,LangExperimentstress,2024.2.4,59.96440511637471,2025-05-05 09h30.35.163719 -0400,
sounds/28d_parar.wav,CVC,Stressed,Mismatch,past,num_2,0.0,0.2,0.8458860026041659,0.862313736979166,1.018194683159722,1.032797113715277,101,40,41,42,43,44,0,0.645886002604166,0.662313736979166,0.818194683159722,0.832797113715277,28d_parar.wav,,d,,22,22,0,,,,,None,28,right,0,1.9069892999832518,None,,,,,,,0,22,22,18,2874.3657433000044,,,,,,,,,,,,,,,,,,,,,,,2876.2809437999967,2876.2810168000287,,,,2874.354295200028,2874.3585860666394,2874.3657433000044,2874.3657433000044,0.006544899952132255,0.01903399999719113,2876.275593700004,2876.2779918999877,right,0,1.9069892999832518,None,None,,,,,,,,,,,,1_L1,001,2025-05-05_09h30.26.756,LangExperimentstress,2024.2.4,59.96440511637471,2025-05-05 09h30.35.163719 -0400,
sounds/22d_dejar.wav,CVC,Stressed,Mismatch,past,num_2,0.0,0.2,0.8500000000000001,1.02,1.152543366608796,1.28794346788194,101,40,41,42,43,44,0,0.65,0.82,0.952543366608796,1.08794346788194,22d_dejar.wav,,d,,23,23,0,,,,,None,22,right,0,2.1406439000274986,None,,,,,,,0,23,23,14,2876.2997906000237,,,,,,,,,,,,,,,,,,,,,,,2878.4498397000134,2878.4499279999873,,,,2876.28792849998,2876.2922603666707,2876.2997906000237,2876.2997906000237,0.006953000032808632,0.019818999979179353,2878.3424359000055,2878.445612600015,right,0,2.1406439000274986,None,None,,,,,,,,,,,,1_L1,001,2025-05-05_09h30.26.756,LangExperimentstress,2024.2.4,59.96440511637471,2025-05-05 09h30.35.163719 -0400,
sounds/09c_cargar.wav,CVC,Unstressed,Match,past,num_2,0.0,0.2,0.81286744068287,0.8382251229745361,1.032634020543981,1.090594437210648,101,30,31,32,33,34,0,0.61286744068287,0.638225122974536,0.832634020543981,0.890594437210648,09c_cargar.wav,,c,,24,24,0,,,,,None,9,right,0,2.6353713999851607,None,,,,,,,0,24,24,28,2878.469713700004,,,,,,,,,,,,,,,,,,,,,,,2881.11458210001,2881.1146700999816,,,,2878.45770660002,2878.459703266683,2878.469713700004,2878.469713700004,0.007909100037068129,0.02057190000778064,2880.4087029999937,2881.111208599992,right,0,2.6353713999851607,None,None,,,,,,,,,,,,1_L1,001,2025-05-05_09h30.26.756,LangExperimentstress,2024.2.4,59.96440511637471,2025-05-05 09h30.35.163719 -0400,
sounds/36c_bordar.wav,CVC,Unstressed,Match,past,num_2,0.0,0.2,1.0,1.078468243634259,1.3288624855324,1.3414992042824,101,30,31,32,33,34,0,0.8,0.878468243634259,1.1288624855324,1.1414992042824,36c_bordar.wav,,c,,25,25,0,,,,,None,36,right,0,2.4276080999989063,None,,,,,,,0,25,25,1,2881.1324919000035,,,,,,,,,,,,,,,,,,,,,,,2883.581977900001,2883.582111500029,,,,2881.1221564000007,2881.1254089666804,2881.1324919000035,2881.1324919000035,0.007489299983717501,0.018759300000965595,2883.4087636999902,2883.5779622999835,right,0,2.4276080999989063,None,None,,,,,,,,,,,,1_L1,001,2025-05-05_09h30.26.756,LangExperimentstress,2024.2.4,59.96440511637471,2025-05-05 09h30.35.163719 -0400,
sounds/03b_limpiar.wav,CVC,Unstressed,Mismatch,present,num_1,0.0,0.2,0.8500000000000001,0.932367621527777,1.26878515625,1.35808463541666,101,20,21,22,23,24,0,0.65,0.732367621527777,1.06878515625,1.15808463541666,03b_limpiar.wav,,b,,26,26,0,,,,,None,3,left,0,2.142884800035972,None,,,,,,,0,26,26,4,2883.600941099983,,,,,,,,,,,,,,,,,,,,,,,2885.765134199988,2885.765210099984,,,,2883.5898451000103,2883.5923578666448,2883.600941099983,2883.600941099983,0.007800999970640987,0.019788699981290847,2885.7425458999933,2885.761315700016,left,0,2.142884800035972,None,None,,,,,,,,,,,,1_L1,001,2025-05-05_09h30.26.756,LangExperimentstress,2024.2.4,59.96440511637471,2025-05-05 09h30.35.163719 -0400,
sounds/37b_pasar.wav,CVC,Unstressed,Mismatch,present,num_1,0.0,0.2,1.033132486979166,1.052087565104166,1.159499674479166,1.27702115885416,101,20,21,22,23,24,0,0.833132486979166,0.852087565104166,0.959499674479166,1.07702115885416,37b_pasar.wav,,b,,27,27,0,,,,,None,37,left,0,2.3348513999953866,None,,,,,,,0,27,27,23,2885.785037500027,,,,,,,,,,,,,,,,,,,,,,,2888.131004200026,2888.13103400002,,,,2885.772180799977,2885.775498366686,2885.785037500027,2885.785037500027,0.006993599992711097,0.020901899959426373,2887.892304899986,2888.1280674000154,left,0,2.3348513999953866,None,None,,,,,,,,,,,,1_L1,001,2025-05-05_09h30.26.756,LangExperimentstress,2024.2.4,59.96440511637471,2025-05-05 09h30.35.163719 -0400,
sounds/07c_tumbar.wav,CVC,Unstressed,Match,past,num_2,0.0,0.2,0.9084024930273432,0.9247360728973012,1.143289673625005,1.154847989033482,101,30,31,32,33,34,0,0.708402493027343,0.724736072897301,0.943289673625005,0.954847989033482,07c_tumbar.wav,,c,,28,28,0,,,,,None,7,right,0,2.2477586999884807,None,,,,,,,0,28,28,6,2888.144278699998,,,,,,,,,,,,,,,,,,,,,,,2890.398248600017,2890.39833679999,,,,2888.1349147,2888.142009366657,2888.144278699998,2888.144278699998,0.003889299987349659,0.013914900016970932,2890.0922033999814,2890.394933899981,right,0,2.2477586999884807,None,None,,,,,,,,,,,,1_L1,001,2025-05-05_09h30.26.756,LangExperimentstress,2024.2.4,59.96440511637471,2025-05-05 09h30.35.163719 -0400,
sounds/18b_cumplir.wav,CVC,Unstressed,Mismatch,present,num_1,0.0,0.2,1.2408027271412,1.25568597366898,1.46256310040509,1.54144430700231,101,20,21,22,23,24,0,1.0408027271412,1.05568597366898,1.26256310040509,1.34144430700231,18b_cumplir.wav,,b,,29,29,0,,,,,space,18,left,0,2.5097667000372894,None,7.0899578999960795,None,,,,,0,29,29,29,2890.4189846999943,,,,,,,,,,,,,,,,,,,,,,,2892.9490641999873,2900.061664799985,,,,2890.4062944999896,2890.4090298666893,2890.4189846999943,2890.4189846999943,0.007991499966010451,0.021615399979054928,2892.593279600027,2892.94491999998,left,0,2.5097667000372894,None,space,2892.9587434999994,2892.9587434999994,7.0899578999960795,None,,,,,,,,1_L1,001,2025-05-05_09h30.26.756,LangExperimentstress,2024.2.4,59.96440511637471,2025-05-05 09h30.35.163719 -0400,
sounds/21a_mezclar.wav,CVC,Stressed,Match,present,num_1,0.0,0.2,0.78,0.9121902777777772,1.20214212962962,1.27,101,10,11,12,13,14,0,0.58,0.712190277777777,1.00214212962962,1.07,21a_mezclar.wav,,a,,30,30,0,,,,,None,21,left,0,1.9946572000044398,None,,,,,,,0,30,30,27,2900.0785166000132,,,,,,,,,,,,,,,,,,,,,,,2902.0856024000095,2902.08568389999,,,,2900.067380900029,2900.0760586666916,2900.0785166000132,2900.0785166000132,0.005693999992217869,0.017741599993314594,,2902.08136880002,left,0,1.9946572000044398,None,None,,,,,,,,,,,,1_L1,001,2025-05-05_09h30.26.756,LangExperimentstress,2024.2.4,59.96440511637471,2025-05-05 09h30.35.163719 -0400,
sounds/13c_montar.wav,CVC,Unstressed,Match,past,num_2,0.0,0.2,0.8800000000000001,0.98,1.24543012152777,1.2594709201388798,101,30,31,32,33,34,0,0.68,0.78,1.04543012152777,1.05947092013888,13c_montar.wav,,c,,31,31,0,,,,,None,13,right,0,2.321745000022929,None,,,,,,,0,31,31,33,2902.103809399996,,,,,,,,,,,,,,,,,,,,,,,2904.4321632999927,2904.432245599979,,,,2902.0927914999775,2902.0930637666647,2902.103809399996,2902.103809399996,0.007133800012525171,0.01902810001047328,2904.3924123999896,2904.42899819999,right,0,2.321745000022929,None,None,,,,,,,,,,,,1_L1,001,2025-05-05_09h30.26.756,LangExperimentstress,2024.2.4,59.96440511637471,2025-05-05 09h30.35.163719 -0400,
sounds/38b_pagar.wav,CVC,Unstressed,Mismatch,present,num_1,0.0,0.2,1.166737304687499,1.185271158854166,1.29521061197916,1.4055712890624898,101,20,21,22,23,24,0,0.966737304687499,0.985271158854166,1.09521061197916,1.20557128906249,38b_pagar.wav,,b,,32,32,0,,,,,None,38,left,0,2.1668623000150546,None,,,,,,,0,32,32,17,2904.4490456000203,,,,,,,,,,,,,,,,,,,,,,,2906.6492965000216,2906.6493987999856,,,,2904.4388476000167,2904.4429949666414,2904.4490456000203,2904.4490456000203,0.006639300030656159,0.017732200038153678,,2906.6286962000304,left,0,2.1668623000150546,None,None,,,,,,,,,,,,1_L1,001,2025-05-05_09h30.26.756,LangExperimentstress,2024.2.4,59.96440511637471,2025-05-05 09h30.35.163719 -0400,
sounds/20c_cubrir.wav,CVC,Unstressed,Match,past,num_2,0.0,0.2,0.980138641742621,1.01,1.192436112212021,1.28412143493692,101,30,31,32,33,34,0,0.780138641742621,0.81,0.992436112212021,1.08412143493692,20c_cubrir.wav,,c,,33,33,0,,,,,None,20,right,0,2.1477167999837548,None,,,,,,,0,33,33,31,2906.6686869999976,,,,,,,,,,,,,,,,,,,,,,,2908.8319053000305,2908.8319744999753,,,,2906.657356199983,2906.6593492333277,2906.6686869999976,2906.6686869999976,0.0079857999808155,0.020445299975108355,2908.809642700013,2908.828256800014,right,0,2.1477167999837548,None,None,,,,,,,,,,,,1_L1,001,2025-05-05_09h30.26.756,LangExperimentstress,2024.2.4,59.96440511637471,2025-05-05 09h30.35.163719 -0400,
sounds/11a_pegar.wav,CVC,Stressed,Match,present,num_1,0.0,0.2,0.8182808977343741,0.831294515585661,0.98,1.012063288108519,101,10,11,12,13,14,0,0.618280897734374,0.631294515585661,0.78,0.812063288108519,11a_pegar.wav,,a,,34,34,0,,,,,None,11,left,0,2.06427580001764,None,,,,,,,0,34,34,3,2908.848337500007,,,,,,,,,,,,,,,,,,,,,,,2910.9322264000075,2910.9323136999737,,,,2908.83796959999,2908.8426443666726,2908.848337500007,2908.848337500007,0.006008900003507733,0.0171762999962084,2910.7930488000275,2910.928948900022,left,0,2.06427580001764,None,None,,,,,,,,,,,,1_L1,001,2025-05-05_09h30.26.756,LangExperimentstress,2024.2.4,59.96440511637471,2025-05-05 09h30.35.163719 -0400,
sounds/10d_vender.wav,CVC,Stressed,Mismatch,past,num_2,0.0,0.2,0.832830209056713,0.8775468199411529,1.109501330306288,1.158928471023364,101,40,41,42,43,44,0,0.632830209056713,0.677546819941153,0.909501330306288,0.958928471023364,10d_vender.wav,,d,,35,35,0,,,,,None,10,right,0,1.9531623999937437,None,,,,,,,0,35,35,12,2910.9507126000244,,,,,,,,,,,,,,,,,,,,,,,2912.9156597999972,2912.9157492999802,,,,2910.9395704999915,2910.9428411666927,2910.9507126000244,2910.9507126000244,0.007279800018295646,0.019358100020326674,2912.8598362000193,2912.912001300021,right,0,1.9531623999937437,None,None,,,,,,,,,,,,1_L1,001,2025-05-05_09h30.26.756,LangExperimentstress,2024.2.4,59.96440511637471,2025-05-05 09h30.35.163719 -0400,
sounds/30a_fundar.wav,CVC,Stressed,Match,present,num_1,0.0,0.2,0.77,0.91,1.112685546875,1.12,101,10,11,12,13,14,0,0.57,0.71,0.912685546875,0.92,30a_fundar.wav,,a,,36,36,0,,,,,None,30,left,0,1.9404036000487395,None,,,,,,,0,36,36,36,2912.9329513999983,,,,,,,,,,,,,,,,,,,,,,,2914.898335099977,2914.898435899988,,,,2912.922847300011,2912.9261593666783,2912.9329513999983,2912.9329513999983,0.007106199976988137,0.01819259999319911,,2914.8789705000236,left,0,1.9404036000487395,None,None,,,,,,,,,,,,1_L1,001,2025-05-05_09h30.26.756,LangExperimentstress,2024.2.4,59.96440511637471,2025-05-05 09h30.35.163719 -0400,
sounds/29a_pesar.wav,CVC,Stressed,Match,present,num_1,0.0,0.2,0.91328417532552,0.925531286730473,1.03,1.150619522602117,101,10,11,12,13,14,0,0.71328417532552,0.725531286730473,0.83,0.950619522602117,29a_pesar.wav,,a,,37,37,0,,,,,None,29,left,0,1.9907859999802895,None,,,,,,,0,37,37,32,2914.9152008999954,,,,,,,,,,,,,,,,,,,,,,,2916.9153941000113,2916.915480799973,,,,2914.904454100004,2914.9096389333217,2914.9152008999954,2914.9152008999954,0.006026600021868944,0.0178965000086464,2916.826329100004,2916.9121325000306,left,0,1.9907859999802895,None,None,,,,,,,,,,,,1_L1,001,2025-05-05_09h30.26.756,LangExperimentstress,2024.2.4,59.96440511637471,2025-05-05 09h30.35.163719 -0400,
sounds/32d_pulsar.wav,CVC,Stressed,Mismatch,past,num_2,0.0,0.2,0.796440212673611,0.8294641710069439,0.99,1.097783832465277,101,40,41,42,43,44,0,0.596440212673611,0.629464171006944,0.79,0.897783832465277,32d_pulsar.wav,,d,,38,38,0,,,,,None,32,right,0,1.9954469000222161,None,,,,,,,0,38,38,24,2916.9327799999737,,,,,,,,,,,,,,,,,,,,,,,2918.948829700006,2918.9489084000234,,,,2916.921762300015,2916.926358066678,2916.9327799999737,2916.9327799999737,0.006295800034422427,0.018215699994470924,2918.743087699986,2918.945384700026,right,0,1.9954469000222161,None,None,,,,,,,,,,,,1_L1,001,2025-05-05_09h30.26.756,LangExperimentstress,2024.2.4,59.96440511637471,2025-05-05 09h30.35.163719 -0400,
sounds/01d_salvar.wav,CVC,Stressed,Mismatch,past,num_2,0.0,0.2,0.8500000000000001,0.996069502314814,1.23,1.29,101,40,41,42,43,44,0,0.65,0.796069502314814,1.03,1.09,01d_salvar.wav,,d,,39,39,0,,,,,None,1,right,0,2.1535519000026397,None,,,,,,,0,39,39,37,2918.9676685000304,,,,,,,,,,,,,,,,,,,,,,,2921.132302300015,2921.1323714000173,,,,2918.956260600011,2918.959524966664,2918.9676685000304,2918.9676685000304,0.007402499963063747,0.019750899984501302,2921.042943299981,2921.1285447999835,right,0,2.1535519000026397,None,None,,,,,,,,,,,,1_L1,001,2025-05-05_09h30.26.756,LangExperimentstress,2024.2.4,59.96440511637471,2025-05-05 09h30.35.163719 -0400,
,,,,,,,,,,,,,,,,,,,,,,,,,,,,,,,,,,,,,,,,,,,,,,,,,,,,,,,,,,,,,,,,,,,,,,,,,,,,,,,,,,,,,,,,,,,,,,,2921.1325679,2921.142976299976,2921.142976299976,2924.095647900016,space,2.9403077000170015,None,1_L1,001,2025-05-05_09h30.26.756,LangExperimentstress,2024.2.4,59.96440511637471,2025-05-05 09h30.35.163719 -0400,
