sounds,syll,stress_unstress,suffix,present_past,corrAns,trigger_item,trigger_senonset,trigger_verbsonset,trigger_1_F0,trigger_suffix,trigger_2_F0,ID_item,ID_senonset,ID_verbonset,ID_1_F0,ID_suffix,ID_2_F0,ms_senonset,ms_verbonset,ms_1_F0,ms_suffix,ms_2_F0,file_name,sentence,cond,combo,thisN,thisTrialN,thisRepN,key_resp_4.keys,key_resp_4.corr,key_resp_4.rt,key_resp_4.duration,key_resp_5.keys,item_id,key_resp_2.keys,key_resp_2.corr,key_resp_2.rt,key_resp_2.duration,key_resp_5.rt,key_resp_5.duration,practice_trials.thisRepN,practice_trials.thisTrialN,practice_trials.thisN,practice_trials.thisIndex,experimental_trials.thisRepN,experimental_trials.thisTrialN,experimental_trials.thisN,experimental_trials.thisIndex,thisRow.t,notes,instructions.started,instr.started,key_resp.started,instructions.stopped,key_resp.keys,key_resp.rt,key_resp.duration,init_practice.started,init_practice.stopped,test_practice.started,test_sound_2.started,key_resp_4.started,polygon.started,serialPort_item_2.started,serialPort_item_2.stopped,test_sound_2.stopped,test_practice.stopped,practice_trials.key_resp_4.keys,practice_trials.key_resp_4.corr,practice_trials.key_resp_4.rt,practice_trials.key_resp_4.duration,takeabreak.started,takeabreak.stopped,practice_trials.key_resp_5.keys,init_trials.started,init_trials.stopped,test.started,test_sound.started,key_resp_2.started,polygon_2.started,serialPort_item.started,serialPort_item.stopped,test_sound.stopped,test.stopped,experimental_trials.key_resp_2.keys,experimental_trials.key_resp_2.corr,experimental_trials.key_resp_2.rt,experimental_trials.key_resp_2.duration,experimental_trials.key_resp_5.keys,text_3.started,key_resp_5.started,experimental_trials.key_resp_5.rt,experimental_trials.key_resp_5.duration,Thanks.started,text_2.started,key_resp_thanks.started,Thanks.stopped,key_resp_thanks.keys,key_resp_thanks.rt,key_resp_thanks.duration,participant,session,date,expName,psychopyVersion,frameRate,expStart,
,,,,,,,,,,,,,,,,,,,,,,,,,,,,,,,,,,,,,,,,,,,,,,,,,,,,0.0028144000098109245,0.014330999983940274,0.014330999983940274,2526.0805183000048,space,2526.0536037999555,None,,,,,,,,,,,,,,,,,,,,,,,,,,,,,,,,,,,,,,,,,,,,2_L1,001,2025-05-05_10h40.04.163,LangExperimentstress,2024.2.4,59.70997671016173,2025-05-05 10h40.25.350596 -0400,
,,,,,,,,,,,,,,,,,,,,,,,,,,,,,,,,,,,,,,,,,,,,,,,,,,,,,,,,,,,2526.0806180000072,2526.0814252999844,,,,,,,,,,,,,,,,,,,,,,,,,,,,,,,,,,,,,,,,,,2_L1,001,2025-05-05_10h40.04.163,LangExperimentstress,2024.2.4,59.70997671016173,2025-05-05 10h40.25.350596 -0400,
sounds/p2b_cortar.wav,CVC,Unstressed,Mismatch,present,num_1,0.0,0.205513,0.8629519999999999,0.984841,1.219715,1.27,101,20,21,22,23,24,0.005513,0.662952,0.784841,1.019715,1.07,p2b_cortar.wav,p2,b,p2b,0,0,0,right,0,2.4814902000362054,None,None,,,,,,,,0,0,0,1,,,,,2526.1052801000187,,,,,,,,,,,2526.094528299989,2526.1052317333024,2526.1052801000187,2526.1052801000187,0.01311380002880469,0.024506200046744198,2528.3724891999736,2528.5924726999947,right,0,2.4814902000362054,None,2528.5964957000106,2528.596627700026,None,,,,,,,,,,,,,,,,,,,,,,,,,,,2_L1,001,2025-05-05_10h40.04.163,LangExperimentstress,2024.2.4,59.70997671016173,2025-05-05 10h40.25.350596 -0400,
sounds/p3c_saltar.wav,CVC,Unstressed,Match,past,num_2,0.0,0.205513,0.8629519999999999,0.984841,1.219715,1.27,101,30,31,32,33,34,0.005513,0.662952,0.784841,1.019715,1.07,p3c_saltar.wav,p3,c,p3c,1,1,0,left,0,2.2361970000201836,None,None,,,,,,,,0,1,1,2,,,,,2528.6149146999815,,,,,,,,,,,2528.6039674999774,2528.606333166656,2528.6149146999815,2528.6149146999815,0.007374700042419136,0.019131100038066506,2530.7064285000088,2530.8582888999954,left,0,2.2361970000201836,None,2530.8625937000033,2530.8626922999974,None,,,,,,,,,,,,,,,,,,,,,,,,,,,2_L1,001,2025-05-05_10h40.04.163,LangExperimentstress,2024.2.4,59.70997671016173,2025-05-05 10h40.25.350596 -0400,
sounds/p1a_saltar.wav,CVC,Stressed,Match,present,num_1,0.0,0.205513,0.8629519999999999,0.984841,1.219715,1.27,101,10,11,12,13,14,0.005513,0.662952,0.784841,1.019715,1.07,p1a_saltar.wav,p1,a,p1a,2,2,0,right,0,2.457201700017322,None,None,,,,,,,,0,2,2,0,,,,,2530.881654799974,,,,,,,,,,,2530.8707031999948,2530.872552166639,2530.881654799974,2530.881654799974,0.008054799982346594,0.01994079997530207,2533.122812299989,2533.3418904999853,right,0,2.457201700017322,None,2533.346098800015,2533.346185799979,None,,,,,,,,,,,,,,,,,,,,,,,,,,,2_L1,001,2025-05-05_10h40.04.163,LangExperimentstress,2024.2.4,59.70997671016173,2025-05-05 10h40.25.350596 -0400,
sounds/p4d_cortar.wav,CVC,Stressed,Mismatch,past,num_2,0.0,0.205513,0.8629519999999999,0.984841,1.219715,1.27,101,40,41,42,43,44,0.005513,0.662952,0.784841,1.019715,1.07,p4d_cortar.wav,p4,d,p4d,3,3,0,right,0,3.2602414999855682,None,None,,,,,,,,0,3,3,3,,,,,2533.3666873999755,,,,,,,,,,,2533.355231499998,2533.3562404666486,2533.3666873999755,2533.3666873999755,0.009089300001505762,0.021436700015328825,2535.8895760999876,2536.641007500002,right,0,3.2602414999855682,None,2536.6434383000014,2536.643523900013,None,,,,,,,,,,,,,,,,,,,,,,,,,,,2_L1,001,2025-05-05_10h40.04.163,LangExperimentstress,2024.2.4,59.70997671016173,2025-05-05 10h40.25.350596 -0400,
,,,,,,,,,,,,,,,,,,,,,,,,,,,,,,,,,,,,,,,,,,,,,,,,,,,,2536.643827199994,2536.655939600023,2536.655939600023,2601.3279609999736,space,64.6670569999842,None,,,,,,,,,,,,,,,,,,,,,,,,,,,,,,,,,,,,,,,,,,,,2_L1,001,2025-05-05_10h40.04.163,LangExperimentstress,2024.2.4,59.70997671016173,2025-05-05 10h40.25.350596 -0400,
,,,,,,,,,,,,,,,,,,,,,,,,,,,,,,,,,,,,,,,,,,,,,,,,,,,,,,,,,,,,,,,,,,,,,,,,,,,,2601.3280573000084,2601.3289408999844,,,,,,,,,,,,,,,,,,,,,,,,,2_L1,001,2025-05-05_10h40.04.163,LangExperimentstress,2024.2.4,59.70997671016173,2025-05-05 10h40.25.350596 -0400,
sounds/05a_fumar.wav,CVC,Stressed,Match,present,num_1,0.0,0.2,1.15,1.36712555700231,1.48,1.56308830295138,101,10,11,12,13,14,0,0.95,1.16712555700231,1.28,1.36308830295138,05a_fumar.wav,,a,,0,0,0,,,,,None,5,right,0,4.0912408999865875,None,,,,,,,0,0,0,38,2601.3594303000136,,,,,,,,,,,,,,,,,,,,,,,2605.4623738999944,2605.462447899976,,,,2601.348636300012,2601.3586015333503,2601.3594303000136,2601.3594303000136,0.019681999983731657,0.03104229999007657,2603.72431640001,2605.4592601999757,right,0,4.0912408999865875,None,None,,,,,,,,,,,,2_L1,001,2025-05-05_10h40.04.163,LangExperimentstress,2024.2.4,59.70997671016173,2025-05-05 10h40.25.350596 -0400,
sounds/04c_plantar.wav,CVC,Unstressed,Match,past,num_2,0.0,0.2,0.862877574458911,0.9343518689653568,1.20493812332404,1.21897569287037,101,30,31,32,33,34,0,0.662877574458911,0.734351868965357,1.00493812332404,1.01897569287037,04c_plantar.wav,,c,,1,1,0,,,,,None,4,left,0,2.162394699989818,None,,,,,,,0,1,1,9,2605.4797550999792,,,,,,,,,,,,,,,,,,,,,,,2607.664402699971,2607.6644860000233,,,,2605.467534299998,2605.474026366665,2605.4797550999792,2605.4797550999792,0.005062800017185509,0.018137100036256015,2607.524694300024,2607.660212900024,left,0,2.162394699989818,None,None,,,,,,,,,,,,2_L1,001,2025-05-05_10h40.04.163,LangExperimentstress,2024.2.4,59.70997671016173,2025-05-05 10h40.25.350596 -0400,
sounds/36c_bordar.wav,CVC,Unstressed,Match,past,num_2,0.0,0.2,1.0,1.078468243634259,1.3288624855324,1.3414992042824,101,30,31,32,33,34,0,0.8,0.878468243634259,1.1288624855324,1.1414992042824,36c_bordar.wav,,c,,2,2,0,,,,,None,36,left,0,2.3041680000023916,None,,,,,,,0,2,2,1,2607.683522599982,,,,,,,,,,,,,,,,,,,,,,,2609.9975557000143,2609.997639100009,,,,2607.6719435999985,2607.674419466643,2607.683522599982,2607.683522599982,0.007548999972641468,0.020262699981685728,2609.957772099995,2609.993932100013,left,0,2.3041680000023916,None,None,,,,,,,,,,,,2_L1,001,2025-05-05_10h40.04.163,LangExperimentstress,2024.2.4,59.70997671016173,2025-05-05 10h40.25.350596 -0400,
sounds/25b_ganar.wav,CVC,Unstressed,Mismatch,present,num_1,0.0,0.2,1.152097938368055,1.15990068760488,1.28904165650454,1.37272500435153,101,20,21,22,23,24,0,0.952097938368055,0.95990068760488,1.08904165650454,1.17272500435153,25b_ganar.wav,,b,,3,3,0,,,,,None,25,right,0,2.2574089000117965,None,,,,,,,0,3,3,8,2610.0172313000076,,,,,,,,,,,,,,,,,,,,,,,2612.297869400005,2612.297972999979,,,,2610.0050764000043,2610.007908766686,2610.0172313000076,2610.0172313000076,0.007477500010281801,0.020791900053154677,,2612.2776693999767,right,0,2.2574089000117965,None,None,,,,,,,,,,,,2_L1,001,2025-05-05_10h40.04.163,LangExperimentstress,2024.2.4,59.70997671016173,2025-05-05 10h40.25.350596 -0400,
sounds/09c_cargar.wav,CVC,Unstressed,Match,past,num_2,0.0,0.2,0.81286744068287,0.8382251229745361,1.032634020543981,1.090594437210648,101,30,31,32,33,34,0,0.61286744068287,0.638225122974536,0.832634020543981,0.890594437210648,09c_cargar.wav,,c,,4,4,0,,,,,None,9,left,0,1.6928017000318505,None,,,,,,,0,4,4,28,2612.3176591999945,,,,,,,,,,,,,,,,,,,,,,,2614.046143100015,2614.046248800005,,,,2612.3051576999715,2612.3083533333347,2612.3176591999945,2612.3176591999945,0.007165500021073967,0.0209055999876,,2614.0276486999937,left,0,1.6928017000318505,None,None,,,,,,,,,,,,2_L1,001,2025-05-05_10h40.04.163,LangExperimentstress,2024.2.4,59.70997671016173,2025-05-05 10h40.25.350596 -0400,
sounds/18b_cumplir.wav,CVC,Unstressed,Mismatch,present,num_1,0.0,0.2,1.2408027271412,1.25568597366898,1.46256310040509,1.54144430700231,101,20,21,22,23,24,0,1.0408027271412,1.05568597366898,1.26256310040509,1.34144430700231,18b_cumplir.wav,,b,,5,5,0,,,,,None,18,right,0,2.242713600047864,None,,,,,,,0,5,5,29,2614.064861299994,,,,,,,,,,,,,,,,,,,,,,,2616.3149406000157,2616.315021599992,,,,2614.053494699998,2614.058384333338,2614.064861299994,2614.064861299994,0.007249499962199479,0.019740199961233884,2616.2410755999736,2616.3108542999835,right,0,2.242713600047864,None,None,,,,,,,,,,,,2_L1,001,2025-05-05_10h40.04.163,LangExperimentstress,2024.2.4,59.70997671016173,2025-05-05 10h40.25.350596 -0400,
sounds/20c_cubrir.wav,CVC,Unstressed,Match,past,num_2,0.0,0.2,0.980138641742621,1.01,1.192436112212021,1.28412143493692,101,30,31,32,33,34,0,0.780138641742621,0.81,0.992436112212021,1.08412143493692,20c_cubrir.wav,,c,,6,6,0,,,,,None,20,left,0,2.3489162999903783,None,,,,,,,0,6,6,31,2616.3347618000116,,,,,,,,,,,,,,,,,,,,,,,2618.6944533999776,2618.694483499974,,,,2616.322651399998,2616.3248301666504,2616.3347618000116,2616.3347618000116,0.007710800040513277,0.02072329999646172,2618.4746357999975,2618.6920806000126,left,0,2.3489162999903783,None,None,,,,,,,,,,,,2_L1,001,2025-05-05_10h40.04.163,LangExperimentstress,2024.2.4,59.70997671016173,2025-05-05 10h40.25.350596 -0400,
sounds/22d_dejar.wav,CVC,Stressed,Mismatch,past,num_2,0.0,0.2,0.8500000000000001,1.02,1.152543366608796,1.28794346788194,101,40,41,42,43,44,0,0.65,0.82,0.952543366608796,1.08794346788194,22d_dejar.wav,,d,,7,7,0,,,,,None,22,left,0,2.5574412000132725,None,,,,,,,0,7,7,14,2618.7088616000256,,,,,,,,,,,,,,,,,,,,,,,2621.280490999983,2621.2805793000152,,,,2618.697202600015,2618.707477866676,2618.7088616000256,2618.7088616000256,0.002729700005147606,0.015001499967183918,2620.757898700016,2621.2772815999924,left,0,2.5574412000132725,None,None,,,,,,,,,,,,2_L1,001,2025-05-05_10h40.04.163,LangExperimentstress,2024.2.4,59.70997671016173,2025-05-05 10h40.25.350596 -0400,
sounds/08d_filtrar.wav,CVC,Stressed,Mismatch,past,num_2,0.0,0.2,0.7526856695589441,0.87808115762362,1.118901843962886,1.172598812485867,101,40,41,42,43,44,0,0.552685669558944,0.67808115762362,0.918901843962886,0.972598812485867,08d_filtrar.wav,,d,,8,8,0,,,,,None,8,left,0,2.5611098000081256,None,,,,,,,0,8,8,15,2621.2979953999748,,,,,,,,,,,,,,,,,,,,,,,2623.8821500000195,2623.8822439999785,,,,2621.2865774999955,2621.2915488666663,2621.2979953999748,2621.2979953999748,0.006022099987603724,0.01829620002536103,2623.058037800016,2623.8776073000045,left,0,2.5611098000081256,None,None,,,,,,,,,,,,2_L1,001,2025-05-05_10h40.04.163,LangExperimentstress,2024.2.4,59.70997671016173,2025-05-05 10h40.25.350596 -0400,
sounds/35b_secar.wav,CVC,Unstressed,Mismatch,present,num_1,0.0,0.2,0.8990044921875,1.025708658854166,1.179689416956018,1.20652606336805,101,20,21,22,23,24,0,0.6990044921875,0.825708658854166,0.979689416956018,1.00652606336805,35b_secar.wav,,b,,9,9,0,,,,,space,35,right,0,2.2537530999979936,None,9.348186400020495,None,,,,,0,9,9,5,2623.901728000026,,,,,,,,,,,,,,,,,,,,,,,2626.164651500003,2635.5278507000185,,,,2623.89036010002,2623.891783466683,2623.901728000026,2623.901728000026,0.00814739998895675,0.020430799981113523,2626.041498699982,2626.160732700024,right,0,2.2537530999979936,None,space,2626.174312599993,2626.174312599993,9.348186400020495,None,,,,,,,,2_L1,001,2025-05-05_10h40.04.163,LangExperimentstress,2024.2.4,59.70997671016173,2025-05-05 10h40.25.350596 -0400,
sounds/15b_partir.wav,CVC,Unstressed,Mismatch,present,num_1,0.0,0.2,0.826865400752314,0.842973894883327,1.1042888772729471,1.120815958498066,101,20,21,22,23,24,0,0.626865400752314,0.642973894883327,0.904288877272947,0.920815958498066,15b_partir.wav,,b,,10,10,0,,,,,None,15,right,0,2.192721600004006,None,,,,,,,0,10,10,22,2635.546563000011,,,,,,,,,,,,,,,,,,,,,,,2637.7486448999844,2637.748731200001,,,,2635.5350530999713,2635.5421654666466,2635.546563000011,2635.546563000011,0.007201000000350177,0.019659999990835786,2637.608785999997,2637.7446010999847,right,0,2.192721600004006,None,None,,,,,,,,,,,,2_L1,001,2025-05-05_10h40.04.163,LangExperimentstress,2024.2.4,59.70997671016173,2025-05-05 10h40.25.350596 -0400,
sounds/11a_pegar.wav,CVC,Stressed,Match,present,num_1,0.0,0.2,0.8182808977343741,0.831294515585661,0.98,1.012063288108519,101,10,11,12,13,14,0,0.618280897734374,0.631294515585661,0.78,0.812063288108519,11a_pegar.wav,,a,,11,11,0,,,,,None,11,right,0,1.945518099993933,None,,,,,,,0,11,11,3,2637.7690072999685,,,,,,,,,,,,,,,,,,,,,,,2639.7319916000124,2639.7320748000056,,,,2637.7560524999863,2637.7587241666665,2637.7690072999685,2637.7690072999685,0.007413299987092614,0.02130979998037219,2639.7083929000073,2639.7277949000127,right,0,1.945518099993933,None,None,,,,,,,,,,,,2_L1,001,2025-05-05_10h40.04.163,LangExperimentstress,2024.2.4,59.70997671016173,2025-05-05 10h40.25.350596 -0400,
sounds/24d_mirar.wav,CVC,Stressed,Mismatch,past,num_2,0.0,0.2,0.71,0.8119545789930551,0.9389863642939812,0.9746780743634248,101,40,41,42,43,44,0,0.51,0.611954578993055,0.738986364293981,0.774678074363425,24d_mirar.wav,,d,,12,12,0,,,,,None,24,left,0,1.8197360000340268,None,,,,,,,0,12,12,11,2639.7518889000057,,,,,,,,,,,,,,,,,,,,,,,2641.58193450002,2641.5820283999783,,,,2639.738622899982,2639.7418284666533,2639.7518889000057,2639.7518889000057,0.006570599973201752,0.02076330001000315,2641.458376399998,2641.577902499994,left,0,1.8197360000340268,None,None,,,,,,,,,,,,2_L1,001,2025-05-05_10h40.04.163,LangExperimentstress,2024.2.4,59.70997671016173,2025-05-05 10h40.25.350596 -0400,
sounds/30a_fundar.wav,CVC,Stressed,Match,present,num_1,0.0,0.2,0.77,0.91,1.112685546875,1.12,101,10,11,12,13,14,0,0.57,0.71,0.912685546875,0.92,30a_fundar.wav,,a,,13,13,0,,,,,None,30,right,0,1.8658199000055902,None,,,,,,,0,13,13,36,2641.600255700003,,,,,,,,,,,,,,,,,,,,,,,2643.4950590999797,2643.4951528999954,,,,2641.5890804000082,2641.592047266666,2641.600255700003,2641.600255700003,0.0070736000197939575,0.019108999986201525,,2643.4774549999856,right,0,1.8658199000055902,None,None,,,,,,,,,,,,2_L1,001,2025-05-05_10h40.04.163,LangExperimentstress,2024.2.4,59.70997671016173,2025-05-05 10h40.25.350596 -0400,
sounds/12a_matar.wav,CVC,Stressed,Match,present,num_1,0.0,0.2,0.8400000000000001,0.96,1.17307472511574,1.186647497106481,101,10,11,12,13,14,0,0.64,0.76,0.97307472511574,0.986647497106481,12a_matar.wav,,a,,14,14,0,,,,,None,12,right,0,2.036012500000652,None,,,,,,,0,14,14,25,2643.510900699999,,,,,,,,,,,,,,,,,,,,,,,2645.575274200004,2645.575377299974,,,,2643.5011115000234,2643.508477033357,2643.510900699999,2643.510900699999,0.005987700016703457,0.01677500002551824,,2645.561176499992,right,0,2.036012500000652,None,None,,,,,,,,,,,,2_L1,001,2025-05-05_10h40.04.163,LangExperimentstress,2024.2.4,59.70997671016173,2025-05-05 10h40.25.350596 -0400,
sounds/21a_mezclar.wav,CVC,Stressed,Match,present,num_1,0.0,0.2,0.78,0.9121902777777772,1.20214212962962,1.27,101,10,11,12,13,14,0,0.58,0.712190277777777,1.00214212962962,1.07,21a_mezclar.wav,,a,,15,15,0,,,,,None,21,right,0,2.0319561999640428,None,,,,,,,0,15,15,27,2645.5943274999736,,,,,,,,,,,,,,,,,,,,,,,2647.632888799999,2647.632977499976,,,,2645.5821131999837,2645.592051633351,2645.5943274999736,2645.5943274999736,0.006711399997584522,0.019783499999903142,2647.625810700003,2647.6285833999864,right,0,2.0319561999640428,None,None,,,,,,,,,,,,2_L1,001,2025-05-05_10h40.04.163,LangExperimentstress,2024.2.4,59.70997671016173,2025-05-05 10h40.25.350596 -0400,
sounds/37b_pasar.wav,CVC,Unstressed,Mismatch,present,num_1,0.0,0.2,1.033132486979166,1.052087565104166,1.159499674479166,1.27702115885416,101,20,21,22,23,24,0,0.833132486979166,0.852087565104166,0.959499674479166,1.07702115885416,37b_pasar.wav,,b,,16,16,0,,,,,None,37,right,0,2.3591663999832235,None,,,,,,,0,16,16,23,2647.6509092000197,,,,,,,,,,,,,,,,,,,,,,,2650.0316808000207,2650.031765300024,,,,2647.640144200006,2647.64247736667,2647.6509092000197,2647.6509092000197,0.007260999991558492,0.018909199978224933,2649.758730100002,2650.027740199992,right,0,2.3591663999832235,None,None,,,,,,,,,,,,2_L1,001,2025-05-05_10h40.04.163,LangExperimentstress,2024.2.4,59.70997671016173,2025-05-05 10h40.25.350596 -0400,
sounds/26a_bajar.wav,CVC,Stressed,Match,present,num_1,0.0,0.2,0.77,0.8999999999999999,1.03,1.171181705729166,101,10,11,12,13,14,0,0.57,0.7,0.83,0.971181705729166,26a_bajar.wav,,a,,17,17,0,,,,,None,26,right,0,1.9039410999976099,None,,,,,,,0,17,17,13,2650.0509051000117,,,,,,,,,,,,,,,,,,,,,,,2651.9848958000075,2651.984959799971,,,,2650.038948100002,2650.042045066661,2650.0509051000117,2650.0509051000117,0.007208299997728318,0.020232000038959086,,2651.9618492000154,right,0,1.9039410999976099,None,None,,,,,,,,,,,,2_L1,001,2025-05-05_10h40.04.163,LangExperimentstress,2024.2.4,59.70997671016173,2025-05-05 10h40.25.350596 -0400,
sounds/02c_buscar.wav,CVC,Unstressed,Match,past,num_2,0.0,0.2,0.8700000000000001,1.07,1.26,1.40703946035879,101,30,31,32,33,34,0,0.67,0.87,1.06,1.20703946035879,02c_buscar.wav,,c,,18,18,0,,,,,None,2,left,0,1.9440015999716707,None,,,,,,,0,18,18,34,2652.0026868999703,,,,,,,,,,,,,,,,,,,,,,,2653.9749193000025,2653.9750249999925,,,,2651.99168929999,2651.9923642333097,2652.0026868999703,2652.0026868999703,0.006775100016966462,0.018357999972067773,,2653.9614364000154,left,0,1.9440015999716707,None,None,,,,,,,,,,,,2_L1,001,2025-05-05_10h40.04.163,LangExperimentstress,2024.2.4,59.70997671016173,2025-05-05 10h40.25.350596 -0400,
sounds/40c_gastar.wav,CVC,Unstressed,Match,past,num_2,0.0,0.2,0.8300000000000001,0.8400000000000001,1.163436328125,1.183149609375,101,30,31,32,33,34,0,0.63,0.64,0.963436328125,0.983149609375,40c_gastar.wav,,c,,19,19,0,,,,,space,40,left,0,1.7453915000078268,None,8.159947200038005,None,,,,,0,19,19,0,2653.994122200005,,,,,,,,,,,,,,,,,,,,,,,2655.7655747000244,2663.9442976000137,,,,2653.9817887999816,2653.9920564333524,2653.994122200005,2653.994122200005,0.006786399986594915,0.020415899984072894,,2655.745201700018,left,0,1.7453915000078268,None,space,2655.770445399976,2655.770445399976,8.159947200038005,None,,,,,,,,2_L1,001,2025-05-05_10h40.04.163,LangExperimentstress,2024.2.4,59.70997671016173,2025-05-05 10h40.25.350596 -0400,
sounds/27c_tirar.wav,CVC,Unstressed,Match,past,num_2,0.0,0.2,0.8119442057291659,0.8307495153356481,0.9885306495949072,0.998621303530092,101,30,31,32,33,34,0,0.611944205729166,0.630749515335648,0.788530649594907,0.798621303530092,27c_tirar.wav,,c,,20,20,0,,,,,None,27,left,0,1.7394527000142261,None,,,,,,,0,20,20,10,2663.9601641999907,,,,,,,,,,,,,,,,,,,,,,,2665.725072100002,2665.7251939999987,,,,2663.9493656000122,2663.9590241666924,2663.9601641999907,2663.9601641999907,0.005049599974881858,0.01664149999851361,,2665.7123724999838,left,0,1.7394527000142261,None,None,,,,,,,,,,,,2_L1,001,2025-05-05_10h40.04.163,LangExperimentstress,2024.2.4,59.70997671016173,2025-05-05 10h40.25.350596 -0400,
sounds/28d_parar.wav,CVC,Stressed,Mismatch,past,num_2,0.0,0.2,0.8458860026041659,0.862313736979166,1.018194683159722,1.032797113715277,101,40,41,42,43,44,0,0.645886002604166,0.662313736979166,0.818194683159722,0.832797113715277,28d_parar.wav,,d,,21,21,0,,,,,None,28,left,0,1.6135387999820523,None,,,,,,,0,21,21,18,2665.7412313999957,,,,,,,,,,,,,,,,,,,,,,,2667.385688200011,2667.3857930999948,,,,2665.730064800009,2665.74293893332,2665.7412313999957,2665.7412313999957,0.00488929997663945,0.017118900024797767,,2667.362106000015,left,0,1.6135387999820523,None,None,,,,,,,,,,,,2_L1,001,2025-05-05_10h40.04.163,LangExperimentstress,2024.2.4,59.70997671016173,2025-05-05 10h40.25.350596 -0400,
sounds/32d_pulsar.wav,CVC,Stressed,Mismatch,past,num_2,0.0,0.2,0.796440212673611,0.8294641710069439,0.99,1.097783832465277,101,40,41,42,43,44,0,0.596440212673611,0.629464171006944,0.79,0.897783832465277,32d_pulsar.wav,,d,,22,22,0,,,,,None,32,left,0,1.6642206000396982,None,,,,,,,0,22,22,24,2667.4027982999687,,,,,,,,,,,,,,,,,,,,,,,2669.095057300001,2669.0951581000118,,,,2667.391882899974,2667.392554433326,2667.4027982999687,2667.4027982999687,0.006103699968662113,0.018162499996833503,,2669.078721099999,left,0,1.6642206000396982,None,None,,,,,,,,,,,,2_L1,001,2025-05-05_10h40.04.163,LangExperimentstress,2024.2.4,59.70997671016173,2025-05-05 10h40.25.350596 -0400,
sounds/17d_tragar.wav,CVC,Stressed,Mismatch,past,num_2,0.0,0.2,1.070609360532407,1.117973654513888,1.30915316840277,1.35458539534397,101,40,41,42,43,44,0,0.870609360532407,0.917973654513888,1.10915316840277,1.15458539534397,17d_tragar.wav,,d,,23,23,0,,,,,None,17,left,0,2.090596500027459,None,,,,,,,0,23,23,26,2669.1127424999722,,,,,,,,,,,,,,,,,,,,,,,2671.236077299982,2671.2361856999923,,,,2669.1018490999704,2669.109254033313,2669.1127424999722,2669.1127424999722,0.0066840999643318355,0.018556499970145524,,2671.211865600024,left,0,2.090596500027459,None,None,,,,,,,,,,,,2_L1,001,2025-05-05_10h40.04.163,LangExperimentstress,2024.2.4,59.70997671016173,2025-05-05 10h40.25.350596 -0400,
sounds/38b_pagar.wav,CVC,Unstressed,Mismatch,present,num_1,0.0,0.2,1.166737304687499,1.185271158854166,1.29521061197916,1.4055712890624898,101,20,21,22,23,24,0,0.966737304687499,0.985271158854166,1.09521061197916,1.20557128906249,38b_pagar.wav,,b,,24,24,0,,,,,None,38,left,0,2.2863926999852993,None,,,,,,,0,24,24,17,2671.25339909998,,,,,,,,,,,,,,,,,,,,,,,2673.5480746999965,2673.548129200004,,,,2671.2425177000114,2671.259199199977,2671.25339909998,2671.25339909998,0.00634709995938465,0.018412999983411282,2673.509254499979,2673.5444003000157,left,0,2.2863926999852993,None,None,,,,,,,,,,,,2_L1,001,2025-05-05_10h40.04.163,LangExperimentstress,2024.2.4,59.70997671016173,2025-05-05 10h40.25.350596 -0400,
sounds/31d_tocar.wav,CVC,Stressed,Mismatch,past,num_2,0.0,0.2,0.8493931756807,0.8650112062639721,1.006860547391531,1.049162047334928,101,40,41,42,43,44,0,0.6493931756807,0.665011206263972,0.806860547391531,0.849162047334928,31d_tocar.wav,,d,,25,25,0,,,,,None,31,left,0,2.0537812000256963,None,,,,,,,0,25,25,30,2673.5652356999926,,,,,,,,,,,,,,,,,,,,,,,2675.6319963000133,2675.6320952000096,,,,2673.5541991000064,2673.559325166691,2673.5652356999926,2673.5652356999926,0.006100500002503395,0.018054299987852573,2675.476166200009,2675.628118199995,left,0,2.0537812000256963,None,None,,,,,,,,,,,,2_L1,001,2025-05-05_10h40.04.163,LangExperimentstress,2024.2.4,59.70997671016173,2025-05-05 10h40.25.350596 -0400,
sounds/33b_culpar.wav,CVC,Unstressed,Mismatch,present,num_1,0.0,0.2,0.8606178431336959,0.869103678029107,1.109891641372144,1.131540467434179,101,20,21,22,23,24,0,0.660617843133696,0.669103678029107,0.909891641372144,0.931540467434179,33b_culpar.wav,,b,,26,26,0,,,,,None,33,right,0,2.5262910000164993,None,,,,,,,0,26,26,35,2675.652495199989,,,,,,,,,,,,,,,,,,,,,,,2678.198357700021,2678.198445599992,,,,2675.639626500022,2675.642567266656,2675.652495199989,2675.652495199989,0.0075530000030994415,0.021615499979816377,2677.8258762999903,2678.1953399999766,right,0,2.5262910000164993,None,None,,,,,,,,,,,,2_L1,001,2025-05-05_10h40.04.163,LangExperimentstress,2024.2.4,59.70997671016173,2025-05-05 10h40.25.350596 -0400,
sounds/29a_pesar.wav,CVC,Stressed,Match,present,num_1,0.0,0.2,0.91328417532552,0.925531286730473,1.03,1.150619522602117,101,10,11,12,13,14,0,0.71328417532552,0.725531286730473,0.83,0.950619522602117,29a_pesar.wav,,a,,27,27,0,,,,,None,29,right,0,2.0100455000065267,None,,,,,,,0,27,27,32,2678.2174877999933,,,,,,,,,,,,,,,,,,,,,,,2680.2492359000025,2680.249315400026,,,,2678.205988199974,2678.2092557666515,2678.2174877999933,2678.2174877999933,0.0075792999705299735,0.02018990000942722,2680.142576300015,2680.245251799992,right,0,2.0100455000065267,None,None,,,,,,,,,,,,2_L1,001,2025-05-05_10h40.04.163,LangExperimentstress,2024.2.4,59.70997671016173,2025-05-05 10h40.25.350596 -0400,
sounds/03b_limpiar.wav,CVC,Unstressed,Mismatch,present,num_1,0.0,0.2,0.8500000000000001,0.932367621527777,1.26878515625,1.35808463541666,101,20,21,22,23,24,0,0.65,0.732367621527777,1.06878515625,1.15808463541666,03b_limpiar.wav,,b,,28,28,0,,,,,None,3,right,0,2.0550542999990284,None,,,,,,,0,28,28,4,2680.2683993999963,,,,,,,,,,,,,,,,,,,,,,,2682.3458163000178,2682.345902299974,,,,2680.2567583000055,2680.2596530666383,2680.2683993999963,2680.2683993999963,0.007552499999292195,0.020343499956652522,,2682.3287394000217,right,0,2.0550542999990284,None,None,,,,,,,,,,,,2_L1,001,2025-05-05_10h40.04.163,LangExperimentstress,2024.2.4,59.70997671016173,2025-05-05 10h40.25.350596 -0400,
sounds/39b_manchar.wav,CVC,Unstressed,Mismatch,present,num_1,0.0,0.2,0.81,0.91203755787037,1.140584317129629,1.2139708912037,101,20,21,22,23,24,0,0.61,0.71203755787037,0.940584317129629,1.0139708912037,39b_manchar.wav,,b,,29,29,0,,,,,space,39,right,0,4.439347199979238,None,7.895982499991078,None,,,,,0,29,29,7,2682.3628448999953,,,,,,,,,,,,,,,,,,,,,,,2686.81655019999,2694.728865700017,,,,2682.35220069997,2682.359495633348,2682.3628448999953,2682.3628448999953,0.006315100006759167,0.01778809999814257,2684.6099036000087,2686.812475499988,right,0,4.439347199979238,None,space,2686.8261825999944,2686.8261825999944,7.895982499991078,None,,,,,,,,2_L1,001,2025-05-05_10h40.04.163,LangExperimentstress,2024.2.4,59.70997671016173,2025-05-05 10h40.25.350596 -0400,
sounds/10d_vender.wav,CVC,Stressed,Mismatch,past,num_2,0.0,0.2,0.832830209056713,0.8775468199411529,1.109501330306288,1.158928471023364,101,40,41,42,43,44,0,0.632830209056713,0.677546819941153,0.909501330306288,0.958928471023364,10d_vender.wav,,d,,30,30,0,,,,,None,10,left,0,2.1835375999799,None,,,,,,,0,30,30,12,2694.7478481999715,,,,,,,,,,,,,,,,,,,,,,,2696.9494330000016,2696.9495141999796,,,,2694.735792600026,2694.7430523666594,2694.7478481999715,2694.7478481999715,0.006908099981956184,0.020018599985633045,2696.659974600014,2696.9455622999812,left,0,2.1835375999799,None,None,,,,,,,,,,,,2_L1,001,2025-05-05_10h40.04.163,LangExperimentstress,2024.2.4,59.70997671016173,2025-05-05 10h40.25.350596 -0400,
sounds/23a_tomar.wav,CVC,Stressed,Match,present,num_1,0.0,0.2,0.9453179615162032,0.95,1.08,1.158644495081018,101,10,11,12,13,14,0,0.745317961516203,0.75,0.88,0.958644495081018,23a_tomar.wav,,a,,31,31,0,,,,,None,23,right,0,2.0115566999884322,None,,,,,,,0,31,31,39,2696.96752820001,,,,,,,,,,,,,,,,,,,,,,,2699.0006463999744,2699.000737799972,,,,2696.9553629999864,2696.9597578666912,2696.96752820001,2696.96752820001,0.005874399968888611,0.019294300000183284,2698.876732099976,2698.9963168000104,right,0,2.0115566999884322,None,None,,,,,,,,,,,,2_L1,001,2025-05-05_10h40.04.163,LangExperimentstress,2024.2.4,59.70997671016173,2025-05-05 10h40.25.350596 -0400,
sounds/19a_marcar.wav,CVC,Stressed,Match,present,num_1,0.0,0.2,0.8400000000000001,0.97,1.245718359375,1.273519140625,101,10,11,12,13,14,0,0.64,0.77,1.045718359375,1.073519140625,19a_marcar.wav,,a,,32,32,0,,,,,None,19,right,0,2.365579599980265,None,,,,,,,0,32,32,19,2699.020643899974,,,,,,,,,,,,,,,,,,,,,,,2701.4006095000077,2701.4006977999816,,,,2699.008803999983,2699.010106566657,2699.020643899974,2699.020643899974,0.0080984000233002,0.020946500007994473,2700.9265386000043,2701.396300500026,right,0,2.365579599980265,None,None,,,,,,,,,,,,2_L1,001,2025-05-05_10h40.04.163,LangExperimentstress,2024.2.4,59.70997671016173,2025-05-05 10h40.25.350596 -0400,
sounds/16a_llevar.wav,CVC,Stressed,Match,present,num_1,0.0,0.2,0.929084516317274,0.964936524692279,1.08,1.131864014418682,101,10,11,12,13,14,0,0.729084516317274,0.764936524692279,0.88,0.931864014418682,16a_llevar.wav,,a,,33,33,0,,,,,None,16,right,0,1.8399227000190876,None,,,,,,,0,33,33,21,2701.4191078000003,,,,,,,,,,,,,,,,,,,,,,,2703.2860614000238,2703.2861642999924,,,,2701.406993100012,2701.4100000666845,2701.4191078000003,2701.4191078000003,0.0063316000159829855,0.019498899986501783,,2703.262747699977,right,0,1.8399227000190876,None,None,,,,,,,,,,,,2_L1,001,2025-05-05_10h40.04.163,LangExperimentstress,2024.2.4,59.70997671016173,2025-05-05 10h40.25.350596 -0400,
sounds/34c_formar.wav,CVC,Unstressed,Match,past,num_2,0.0,0.2,0.876373676215277,0.992687651909722,1.14,1.26319767795138,101,30,31,32,33,34,0,0.676373676215277,0.792687651909722,0.94,1.06319767795138,34c_formar.wav,,c,,34,34,0,,,,,None,34,left,0,1.8581491999793798,None,,,,,,,0,34,34,2,2703.305387499975,,,,,,,,,,,,,,,,,,,,,,,2705.1966332999873,2705.196727500006,,,,2703.293866400025,2703.3101624000237,2703.305387499975,2703.305387499975,0.007758699997793883,0.020447099988814443,,2705.179311099986,left,0,1.8581491999793798,None,None,,,,,,,,,,,,2_L1,001,2025-05-05_10h40.04.163,LangExperimentstress,2024.2.4,59.70997671016173,2025-05-05 10h40.25.350596 -0400,
sounds/06d_soplar.wav,CVC,Stressed,Mismatch,past,num_2,0.0,0.2,0.761291666666666,0.8899999999999999,1.102139687590422,1.166665581687644,101,40,41,42,43,44,0,0.561291666666666,0.69,0.902139687590422,0.966665581687644,06d_soplar.wav,,d,,35,35,0,,,,,None,6,left,0,2.0272803000407293,None,,,,,,,0,35,35,16,2705.2157166000106,,,,,,,,,,,,,,,,,,,,,,,2707.250485399971,2707.250579899992,,,,2705.203694799973,2705.210051833311,2705.2157166000106,2705.2157166000106,0.006999699980951846,0.020104299997910857,2707.1099360000226,2707.2460742000258,left,0,2.0272803000407293,None,None,,,,,,,,,,,,2_L1,001,2025-05-05_10h40.04.163,LangExperimentstress,2024.2.4,59.70997671016173,2025-05-05 10h40.25.350596 -0400,
sounds/01d_salvar.wav,CVC,Stressed,Mismatch,past,num_2,0.0,0.2,0.8500000000000001,0.996069502314814,1.23,1.29,101,40,41,42,43,44,0,0.65,0.796069502314814,1.03,1.09,01d_salvar.wav,,d,,36,36,0,,,,,None,1,left,0,2.1172039000084624,None,,,,,,,0,36,36,37,2707.2702989000245,,,,,,,,,,,,,,,,,,,,,,,2709.3998607000103,2709.3999497999903,,,,2707.258027600008,2707.2602167666814,2707.2702989000245,2707.2702989000245,0.007568799948785454,0.02085819997591898,2709.3438621999812,2709.3966110000038,left,0,2.1172039000084624,None,None,,,,,,,,,,,,2_L1,001,2025-05-05_10h40.04.163,LangExperimentstress,2024.2.4,59.70997671016173,2025-05-05 10h40.25.350596 -0400,
sounds/14b_borrar.wav,CVC,Unstressed,Mismatch,present,num_1,0.0,0.2,0.72,0.770187630208333,0.851961241319444,0.964399956597222,101,20,21,22,23,24,0,0.52,0.570187630208333,0.651961241319444,0.764399956597222,14b_borrar.wav,,b,,37,37,0,,,,,None,14,right,0,2.640645300038159,None,,,,,,,0,37,37,20,2709.4188133999705,,,,,,,,,,,,,,,,,,,,,,,2712.0660162999993,2712.0661051999778,,,,2709.4069423999754,2709.4106317666633,2709.4188133999705,2709.4188133999705,0.007014199974946678,0.019823300011921674,2711.376747799979,2712.0628711999743,right,0,2.640645300038159,None,None,,,,,,,,,,,,2_L1,001,2025-05-05_10h40.04.163,LangExperimentstress,2024.2.4,59.70997671016173,2025-05-05 10h40.25.350596 -0400,
sounds/07c_tumbar.wav,CVC,Unstressed,Match,past,num_2,0.0,0.2,0.9084024930273432,0.9247360728973012,1.143289673625005,1.154847989033482,101,30,31,32,33,34,0,0.708402493027343,0.724736072897301,0.943289673625005,0.954847989033482,07c_tumbar.wav,,c,,38,38,0,,,,,None,7,left,0,2.1828004000126384,None,,,,,,,0,38,38,6,2712.0833639000193,,,,,,,,,,,,,,,,,,,,,,,2714.2834895999986,2714.2835783999762,,,,2712.07268859999,2712.0769639666582,2712.0833639000193,2712.0833639000193,0.0066003999672830105,0.01806639996357262,2714.043730299978,2714.2796923000133,left,0,2.1828004000126384,None,None,,,,,,,,,,,,2_L1,001,2025-05-05_10h40.04.163,LangExperimentstress,2024.2.4,59.70997671016173,2025-05-05 10h40.25.350596 -0400,
sounds/13c_montar.wav,CVC,Unstressed,Match,past,num_2,0.0,0.2,0.8800000000000001,0.98,1.24543012152777,1.2594709201388798,101,30,31,32,33,34,0,0.68,0.78,1.04543012152777,1.05947092013888,13c_montar.wav,,c,,39,39,0,,,,,None,13,left,0,2.698947799974121,None,,,,,,,0,39,39,33,2714.3041675999993,,,,,,,,,,,,,,,,,,,,,,,2717.0146615999984,2717.014742899977,,,,2714.291682399984,2714.293829466686,2714.3041675999993,2714.3041675999993,0.008191899978555739,0.021469200029969215,2716.593451599998,2717.0120421000174,left,0,2.698947799974121,None,None,,,,,,,,,,,,2_L1,001,2025-05-05_10h40.04.163,LangExperimentstress,2024.2.4,59.70997671016173,2025-05-05 10h40.25.350596 -0400,
,,,,,,,,,,,,,,,,,,,,,,,,,,,,,,,,,,,,,,,,,,,,,,,,,,,,,,,,,,,,,,,,,,,,,,,,,,,,,,,,,,,,,,,,,,,,,,,2717.0149578999844,2717.026901800011,2717.026901800011,2725.378349900013,space,8.341580100008287,None,2_L1,001,2025-05-05_10h40.04.163,LangExperimentstress,2024.2.4,59.70997671016173,2025-05-05 10h40.25.350596 -0400,
