sounds,syll,stress_unstress,suffix,present_past,corrAns,trigger_item,trigger_senonset,trigger_verbsonset,trigger_1_F0,trigger_suffix,trigger_2_F0,ID_item,ID_senonset,ID_verbonset,ID_1_F0,ID_suffix,ID_2_F0,ms_senonset,ms_verbonset,ms_1_F0,ms_suffix,ms_2_F0,file_name,sentence,cond,combo,thisN,thisTrialN,thisRepN,key_resp_4.keys,key_resp_4.corr,key_resp_4.rt,key_resp_4.duration,key_resp_5.keys,item_id,key_resp_2.keys,key_resp_2.corr,key_resp_2.rt,key_resp_2.duration,key_resp_5.rt,key_resp_5.duration,practice_trials.thisRepN,practice_trials.thisTrialN,practice_trials.thisN,practice_trials.thisIndex,experimental_trials.thisRepN,experimental_trials.thisTrialN,experimental_trials.thisN,experimental_trials.thisIndex,thisRow.t,notes,instructions.started,instr.started,key_resp.started,instructions.stopped,key_resp.keys,key_resp.rt,key_resp.duration,init_practice.started,init_practice.stopped,test_practice.started,test_sound_2.started,key_resp_4.started,polygon.started,serialPort_item_2.started,serialPort_item_2.stopped,test_sound_2.stopped,test_practice.stopped,practice_trials.key_resp_4.keys,practice_trials.key_resp_4.corr,practice_trials.key_resp_4.rt,practice_trials.key_resp_4.duration,takeabreak.started,takeabreak.stopped,practice_trials.key_resp_5.keys,init_trials.started,init_trials.stopped,test.started,test_sound.started,key_resp_2.started,polygon_2.started,serialPort_item.started,serialPort_item.stopped,test_sound.stopped,test.stopped,experimental_trials.key_resp_2.keys,experimental_trials.key_resp_2.corr,experimental_trials.key_resp_2.rt,experimental_trials.key_resp_2.duration,experimental_trials.key_resp_5.keys,text_3.started,key_resp_5.started,experimental_trials.key_resp_5.rt,experimental_trials.key_resp_5.duration,Thanks.started,text_2.started,key_resp_thanks.started,Thanks.stopped,key_resp_thanks.keys,key_resp_thanks.rt,key_resp_thanks.duration,participant,session,date,expName,psychopyVersion,frameRate,expStart,
,,,,,,,,,,,,,,,,,,,,,,,,,,,,,,,,,,,,,,,,,,,,,,,,,,,,0.0025633000186644495,0.01772460000938736,0.01772460000938736,3447.2869053999893,space,3447.2528798999847,None,,,,,,,,,,,,,,,,,,,,,,,,,,,,,,,,,,,,,,,,,,,,10_L2,001,2025-04-24_13h11.53.156,LangExperimentstress,2024.2.4,61.00670830007548,2025-04-24 13h12.03.904765 -0400,
,,,,,,,,,,,,,,,,,,,,,,,,,,,,,,,,,,,,,,,,,,,,,,,,,,,,,,,,,,,3447.2869850000134,3447.287585299986,,,,,,,,,,,,,,,,,,,,,,,,,,,,,,,,,,,,,,,,,,10_L2,001,2025-04-24_13h11.53.156,LangExperimentstress,2024.2.4,61.00670830007548,2025-04-24 13h12.03.904765 -0400,
sounds/p4d_cortar.wav,CVC,Stressed,Mismatch,past,num_2,0.0,0.205513,0.8629519999999999,0.984841,1.219715,1.27,101,40,41,42,43,44,0.005513,0.662952,0.784841,1.019715,1.07,p4d_cortar.wav,p4,d,p4d,0,0,0,left,0,7.711214000009932,None,None,,,,,,,,0,0,0,3,,,,,3447.3099654000252,,,,,,,,,,,3447.298982200038,3447.310674433372,3447.3099654000252,3447.3099654000252,0.011426499986555427,0.023053099983371794,3449.827595699986,3455.030163999996,left,0,7.711214000009932,None,3455.0335253000376,3455.0336175999837,None,,,,,,,,,,,,,,,,,,,,,,,,,,,10_L2,001,2025-04-24_13h11.53.156,LangExperimentstress,2024.2.4,61.00670830007548,2025-04-24 13h12.03.904765 -0400,
sounds/p2b_cortar.wav,CVC,Unstressed,Mismatch,present,num_1,0.0,0.205513,0.8629519999999999,0.984841,1.219715,1.27,101,20,21,22,23,24,0.005513,0.662952,0.784841,1.019715,1.07,p2b_cortar.wav,p2,b,p2b,1,1,0,right,0,9.450643000018317,None,None,,,,,,,,0,1,1,1,,,,,3455.050595699984,,,,,,,,,,,3455.0387204000144,3455.0442954666837,3455.050595699984,3455.050595699984,0.005101500020828098,0.01795399998081848,3457.310515000019,3464.5133795000147,right,0,9.450643000018317,None,3464.517474399996,3464.517557199986,None,,,,,,,,,,,,,,,,,,,,,,,,,,,10_L2,001,2025-04-24_13h11.53.156,LangExperimentstress,2024.2.4,61.00670830007548,2025-04-24 13h12.03.904765 -0400,
sounds/p3c_saltar.wav,CVC,Unstressed,Match,past,num_2,0.0,0.205513,0.8629519999999999,0.984841,1.219715,1.27,101,30,31,32,33,34,0.005513,0.662952,0.784841,1.019715,1.07,p3c_saltar.wav,p3,c,p3c,2,2,0,left,0,11.93675880000228,None,None,,,,,,,,0,2,2,2,,,,,3464.533008700004,,,,,,,,,,,3464.5223858000245,3464.527438966678,3464.533008700004,3464.533008700004,0.004832600010558963,0.01625019998755306,3466.6102253000136,3476.479233500024,left,0,11.93675880000228,None,3476.481759199989,3476.48182310001,None,,,,,,,,,,,,,,,,,,,,,,,,,,,10_L2,001,2025-04-24_13h11.53.156,LangExperimentstress,2024.2.4,61.00670830007548,2025-04-24 13h12.03.904765 -0400,
sounds/p1a_saltar.wav,CVC,Stressed,Match,present,num_1,0.0,0.205513,0.8629519999999999,0.984841,1.219715,1.27,101,10,11,12,13,14,0.005513,0.662952,0.784841,1.019715,1.07,p1a_saltar.wav,p1,a,p1a,3,3,0,right,0,10.989351500000339,None,None,,,,,,,,0,3,3,0,,,,,3476.4967108999845,,,,,,,,,,,3476.485785600031,3476.4939448667033,3476.4967108999845,3476.4967108999845,0.00397080002585426,0.01549170003272593,3478.7447265000083,3487.49712070002,right,0,10.989351500000339,None,3487.501040000003,3487.501126500021,None,,,,,,,,,,,,,,,,,,,,,,,,,,,10_L2,001,2025-04-24_13h11.53.156,LangExperimentstress,2024.2.4,61.00670830007548,2025-04-24 13h12.03.904765 -0400,
,,,,,,,,,,,,,,,,,,,,,,,,,,,,,,,,,,,,,,,,,,,,,,,,,,,,3487.50134300004,3487.5110820999835,3487.5110820999835,3534.2312844000407,space,46.702420599991456,None,,,,,,,,,,,,,,,,,,,,,,,,,,,,,,,,,,,,,,,,,,,,10_L2,001,2025-04-24_13h11.53.156,LangExperimentstress,2024.2.4,61.00670830007548,2025-04-24 13h12.03.904765 -0400,
,,,,,,,,,,,,,,,,,,,,,,,,,,,,,,,,,,,,,,,,,,,,,,,,,,,,,,,,,,,,,,,,,,,,,,,,,,,,3534.2313934999984,3534.232382300019,,,,,,,,,,,,,,,,,,,,,,,,,10_L2,001,2025-04-24_13h11.53.156,LangExperimentstress,2024.2.4,61.00670830007548,2025-04-24 13h12.03.904765 -0400,
sounds/14b_borrar.wav,CVC,Unstressed,Mismatch,present,num_1,0.0,0.2,0.72,0.770187630208333,0.851961241319444,0.964399956597222,101,20,21,22,23,24,0,0.52,0.570187630208333,0.651961241319444,0.764399956597222,14b_borrar.wav,,b,,0,0,0,,,,,None,14,right,0,9.60093680000864,None,,,,,,,0,0,0,20,3534.260220700002,,,,,,,,,,,,,,,,,,,,,,,3543.865975700028,3543.866016099986,,,,3534.2502393000177,3534.262313033346,3534.260220700002,3534.260220700002,0.017857500002719462,0.02851779997581616,3536.211920300033,3543.863486599992,right,0,9.60093680000864,None,None,,,,,,,,,,,,10_L2,001,2025-04-24_13h11.53.156,LangExperimentstress,2024.2.4,61.00670830007548,2025-04-24 13h12.03.904765 -0400,
sounds/34c_formar.wav,CVC,Unstressed,Match,past,num_2,0.0,0.2,0.876373676215277,0.992687651909722,1.14,1.26319767795138,101,30,31,32,33,34,0,0.676373676215277,0.792687651909722,0.94,1.06319767795138,34c_formar.wav,,c,,1,1,0,,,,,None,34,left,0,16.111094099993352,None,,,,,,,0,1,1,2,3543.8792449000175,,,,,,,,,,,,,,,,,,,,,,,3560.0032102999976,3560.0033141000313,,,,3543.8684730000095,3543.8786496666767,3543.8792449000175,3543.8792449000175,0.002464400022290647,0.013847700029145926,3546.1290937000304,3559.9989567000302,left,0,16.111094099993352,None,None,,,,,,,,,,,,10_L2,001,2025-04-24_13h11.53.156,LangExperimentstress,2024.2.4,61.00670830007548,2025-04-24 13h12.03.904765 -0400,
sounds/32d_pulsar.wav,CVC,Stressed,Mismatch,past,num_2,0.0,0.2,0.796440212673611,0.8294641710069439,0.99,1.097783832465277,101,40,41,42,43,44,0,0.596440212673611,0.629464171006944,0.79,0.897783832465277,32d_pulsar.wav,,d,,2,2,0,,,,,None,32,left,0,22.399979699985124,None,,,,,,,0,2,2,24,3560.0211495000403,,,,,,,,,,,,,,,,,,,,,,,3582.4366145000095,3582.436706800014,,,,3560.009386699996,3560.0128184667014,3560.0211495000403,3560.0211495000403,0.006111399969086051,0.0189824000117369,3561.8294495000155,3582.432750799984,left,0,22.399979699985124,None,None,,,,,,,,,,,,10_L2,001,2025-04-24_13h11.53.156,LangExperimentstress,2024.2.4,61.00670830007548,2025-04-24 13h12.03.904765 -0400,
sounds/22d_dejar.wav,CVC,Stressed,Mismatch,past,num_2,0.0,0.2,0.8500000000000001,1.02,1.152543366608796,1.28794346788194,101,40,41,42,43,44,0,0.65,0.82,0.952543366608796,1.08794346788194,22d_dejar.wav,,d,,3,3,0,,,,,None,22,left,0,4.303805200033821,None,,,,,,,0,3,3,14,3582.453659199993,,,,,,,,,,,,,,,,,,,,,,,3586.7664124000003,3586.7664816000033,,,,3582.4417450000183,3582.44667566667,3582.453659199993,3582.453659199993,0.0050471999566070735,0.018012399959843606,3584.4969821000122,3586.7642017999897,left,0,4.303805200033821,None,None,,,,,,,,,,,,10_L2,001,2025-04-24_13h11.53.156,LangExperimentstress,2024.2.4,61.00670830007548,2025-04-24 13h12.03.904765 -0400,
sounds/25b_ganar.wav,CVC,Unstressed,Mismatch,present,num_1,0.0,0.2,1.152097938368055,1.15990068760488,1.28904165650454,1.37272500435153,101,20,21,22,23,24,0,0.952097938368055,0.95990068760488,1.08904165650454,1.17272500435153,25b_ganar.wav,,b,,4,4,0,,,,,None,25,right,0,2.993584199983161,None,,,,,,,0,4,4,8,3586.780267300026,,,,,,,,,,,,,,,,,,,,,,,3589.7856881000334,3589.7857723000343,,,,3586.7695995999966,3586.779587566682,3586.780267300026,3586.780267300026,0.0031285000150091946,0.014648500015027821,3589.1306683000294,3589.7822847000207,right,0,2.993584199983161,None,None,,,,,,,,,,,,10_L2,001,2025-04-24_13h11.53.156,LangExperimentstress,2024.2.4,61.00670830007548,2025-04-24 13h12.03.904765 -0400,
sounds/35b_secar.wav,CVC,Unstressed,Mismatch,present,num_1,0.0,0.2,0.8990044921875,1.025708658854166,1.179689416956018,1.20652606336805,101,20,21,22,23,24,0,0.6990044921875,0.825708658854166,0.979689416956018,1.00652606336805,35b_secar.wav,,b,,5,5,0,,,,,None,35,right,0,9.445618099998683,None,,,,,,,0,5,5,5,3589.800437400001,,,,,,,,,,,,,,,,,,,,,,,3599.2541530000162,3599.2542449000175,,,,3589.7903973000357,3589.796665366685,3589.800437400001,3589.800437400001,0.0046255000052042305,0.015554799989331514,3591.947435799986,3599.251057800022,right,0,9.445618099998683,None,None,,,,,,,,,,,,10_L2,001,2025-04-24_13h11.53.156,LangExperimentstress,2024.2.4,61.00670830007548,2025-04-24 13h12.03.904765 -0400,
sounds/13c_montar.wav,CVC,Unstressed,Match,past,num_2,0.0,0.2,0.8800000000000001,0.98,1.24543012152777,1.2594709201388798,101,30,31,32,33,34,0,0.68,0.78,1.04543012152777,1.05947092013888,13c_montar.wav,,c,,6,6,0,,,,,None,13,left,0,13.310523599968292,None,,,,,,,0,6,6,33,3599.2718022000045,,,,,,,,,,,,,,,,,,,,,,,3612.6038456000388,3612.6039387999917,,,,3599.260521100019,3599.265051466708,3599.2718022000045,3599.2718022000045,0.006289800046943128,0.018581500044092536,3601.563831300009,3612.5995488000335,left,0,13.310523599968292,None,None,,,,,,,,,,,,10_L2,001,2025-04-24_13h11.53.156,LangExperimentstress,2024.2.4,61.00670830007548,2025-04-24 13h12.03.904765 -0400,
sounds/20c_cubrir.wav,CVC,Unstressed,Match,past,num_2,0.0,0.2,0.980138641742621,1.01,1.192436112212021,1.28412143493692,101,30,31,32,33,34,0,0.780138641742621,0.81,0.992436112212021,1.08412143493692,20c_cubrir.wav,,c,,7,7,0,,,,,None,20,left,0,4.45764949999284,None,,,,,,,0,7,7,31,3612.6210386999883,,,,,,,,,,,,,,,,,,,,,,,3617.084356200008,3617.084426300018,,,,3612.6094693000196,3612.6139928666566,3612.6210386999883,3612.6210386999883,0.005562199978157878,0.018292599997948855,3614.764093600039,3617.082346500014,left,0,4.45764949999284,None,None,,,,,,,,,,,,10_L2,001,2025-04-24_13h11.53.156,LangExperimentstress,2024.2.4,61.00670830007548,2025-04-24 13h12.03.904765 -0400,
sounds/36c_bordar.wav,CVC,Unstressed,Match,past,num_2,0.0,0.2,1.0,1.078468243634259,1.3288624855324,1.3414992042824,101,30,31,32,33,34,0,0.8,0.878468243634259,1.1288624855324,1.1414992042824,36c_bordar.wav,,c,,8,8,0,,,,,None,36,left,0,5.658924099989235,None,,,,,,,0,8,8,1,3617.098829500028,,,,,,,,,,,,,,,,,,,,,,,3622.770740900014,3622.770822499995,,,,3617.088571900036,3617.0971428667003,3617.098829500028,3617.098829500028,0.004149499989580363,0.01501600001938641,3619.3807896000217,3622.766970800003,left,0,5.658924099989235,None,None,,,,,,,,,,,,10_L2,001,2025-04-24_13h11.53.156,LangExperimentstress,2024.2.4,61.00670830007548,2025-04-24 13h12.03.904765 -0400,
sounds/29a_pesar.wav,CVC,Stressed,Match,present,num_1,0.0,0.2,0.91328417532552,0.925531286730473,1.03,1.150619522602117,101,10,11,12,13,14,0,0.71328417532552,0.725531286730473,0.83,0.950619522602117,29a_pesar.wav,,a,,9,9,0,,,,,space,29,left,0,17.761877100041602,None,7.6814071999979205,None,,,,,0,9,9,32,3622.7874616000336,,,,,,,,,,,,,,,,,,,,,,,3640.569506300031,3648.2675638000364,,,,3622.775769300002,3622.7812979666674,3622.7874616000336,3622.7874616000336,0.004967899993062019,0.01771430001826957,3624.7147837000084,3640.5668215000187,left,0,17.761877100041602,None,space,3640.5808216999867,3640.5808216999867,7.6814071999979205,None,,,,,,,,10_L2,001,2025-04-24_13h11.53.156,LangExperimentstress,2024.2.4,61.00670830007548,2025-04-24 13h12.03.904765 -0400,
sounds/17d_tragar.wav,CVC,Stressed,Mismatch,past,num_2,0.0,0.2,1.070609360532407,1.117973654513888,1.30915316840277,1.35458539534397,101,40,41,42,43,44,0,0.870609360532407,0.917973654513888,1.10915316840277,1.15458539534397,17d_tragar.wav,,d,,10,10,0,,,,,None,17,right,0,5.889136099955067,None,,,,,,,0,10,10,26,3648.2840077999863,,,,,,,,,,,,,,,,,,,,,,,3654.186041900015,3654.1860933999997,,,,3648.2730230999878,3648.281661266698,3648.2840077999863,3648.2840077999863,0.005438299966044724,0.017217200016602874,3650.5818115000147,3654.1828580999863,right,0,5.889136099955067,None,None,,,,,,,,,,,,10_L2,001,2025-04-24_13h11.53.156,LangExperimentstress,2024.2.4,61.00670830007548,2025-04-24 13h12.03.904765 -0400,
sounds/08d_filtrar.wav,CVC,Stressed,Mismatch,past,num_2,0.0,0.2,0.7526856695589441,0.87808115762362,1.118901843962886,1.172598812485867,101,40,41,42,43,44,0,0.552685669558944,0.67808115762362,0.918901843962886,0.972598812485867,08d_filtrar.wav,,d,,11,11,0,,,,,None,8,right,0,4.916707500000484,None,,,,,,,0,11,11,15,3654.2007868000073,,,,,,,,,,,,,,,,,,,,,,,3659.1383138000383,3659.1383911999874,,,,3654.1892668000073,3654.1978577667073,3654.2007868000073,3654.2007868000073,0.00318840000545606,0.0156445000320673,3655.965086799988,3659.1345495000132,right,0,4.916707500000484,None,None,,,,,,,,,,,,10_L2,001,2025-04-24_13h11.53.156,LangExperimentstress,2024.2.4,61.00670830007548,2025-04-24 13h12.03.904765 -0400,
sounds/16a_llevar.wav,CVC,Stressed,Match,present,num_1,0.0,0.2,0.929084516317274,0.964936524692279,1.08,1.131864014418682,101,10,11,12,13,14,0,0.729084516317274,0.764936524692279,0.88,0.931864014418682,16a_llevar.wav,,a,,12,12,0,,,,,None,16,right,0,4.050776499963831,None,,,,,,,0,12,12,21,3659.155571900017,,,,,,,,,,,,,,,,,,,,,,,3663.221217699989,3663.2213064000243,,,,3659.143615400011,3659.148772966703,3659.155571900017,3659.155571900017,0.005247199966106564,0.018246499996166676,3661.06475640001,3663.218028100033,right,0,4.050776499963831,None,None,,,,,,,,,,,,10_L2,001,2025-04-24_13h11.53.156,LangExperimentstress,2024.2.4,61.00670830007548,2025-04-24 13h12.03.904765 -0400,
sounds/37b_pasar.wav,CVC,Unstressed,Mismatch,present,num_1,0.0,0.2,1.033132486979166,1.052087565104166,1.159499674479166,1.27702115885416,101,20,21,22,23,24,0,0.833132486979166,0.852087565104166,0.959499674479166,1.07702115885416,37b_pasar.wav,,b,,13,13,0,,,,,None,37,left,0,2.7903155999956653,None,,,,,,,0,13,13,23,3663.239107100002,,,,,,,,,,,,,,,,,,,,,,,3666.039141200017,3666.0392363999854,,,,3663.22641990002,3663.231907966667,3663.239107100002,3663.239107100002,0.005131100013386458,0.018824200029484928,3665.365129599988,3666.034835600003,left,0,2.7903155999956653,None,None,,,,,,,,,,,,10_L2,001,2025-04-24_13h11.53.156,LangExperimentstress,2024.2.4,61.00670830007548,2025-04-24 13h12.03.904765 -0400,
sounds/31d_tocar.wav,CVC,Stressed,Mismatch,past,num_2,0.0,0.2,0.8493931756807,0.8650112062639721,1.006860547391531,1.049162047334928,101,40,41,42,43,44,0,0.6493931756807,0.665011206263972,0.806860547391531,0.849162047334928,31d_tocar.wav,,d,,14,14,0,,,,,None,31,right,0,3.094399900001008,None,,,,,,,0,14,14,30,3666.0554752000025,,,,,,,,,,,,,,,,,,,,,,,3669.170915200026,3669.171008000034,,,,3666.0442860000185,3666.048865366673,3666.0554752000025,3666.0554752000025,0.005087400029879063,0.017241200024727732,3667.9651171999867,3669.1675101,right,0,3.094399900001008,None,None,,,,,,,,,,,,10_L2,001,2025-04-24_13h11.53.156,LangExperimentstress,2024.2.4,61.00670830007548,2025-04-24 13h12.03.904765 -0400,
sounds/12a_matar.wav,CVC,Stressed,Match,present,num_1,0.0,0.2,0.8400000000000001,0.96,1.17307472511574,1.186647497106481,101,10,11,12,13,14,0,0.64,0.76,0.97307472511574,0.986647497106481,12a_matar.wav,,a,,15,15,0,,,,,None,12,left,0,2.707759500015527,None,,,,,,,0,15,15,25,3669.1870883000083,,,,,,,,,,,,,,,,,,,,,,,3671.9046570000355,3671.9047365000006,,,,3669.176327800029,3669.1818147666677,3669.1870883000083,3669.1870883000083,0.005319599993526936,0.0171200999757275,3671.381634199992,3671.901299500023,left,0,2.707759500015527,None,None,,,,,,,,,,,,10_L2,001,2025-04-24_13h11.53.156,LangExperimentstress,2024.2.4,61.00670830007548,2025-04-24 13h12.03.904765 -0400,
sounds/11a_pegar.wav,CVC,Stressed,Match,present,num_1,0.0,0.2,0.8182808977343741,0.831294515585661,0.98,1.012063288108519,101,10,11,12,13,14,0,0.618280897734374,0.631294515585661,0.78,0.812063288108519,11a_pegar.wav,,a,,16,16,0,,,,,None,11,left,0,2.5156729000154883,None,,,,,,,0,16,16,3,3671.921330299985,,,,,,,,,,,,,,,,,,,,,,,3674.4546984999906,3674.454795000027,,,,3671.9097604000126,3671.915352366694,3671.921330299985,3671.921330299985,0.005038300005253404,0.017690900014713407,3673.865410200029,3674.4514652999933,left,0,2.5156729000154883,None,None,,,,,,,,,,,,10_L2,001,2025-04-24_13h11.53.156,LangExperimentstress,2024.2.4,61.00670830007548,2025-04-24 13h12.03.904765 -0400,
sounds/15b_partir.wav,CVC,Unstressed,Mismatch,present,num_1,0.0,0.2,0.826865400752314,0.842973894883327,1.1042888772729471,1.120815958498066,101,20,21,22,23,24,0,0.626865400752314,0.642973894883327,0.904288877272947,0.920815958498066,15b_partir.wav,,b,,17,17,0,,,,,None,15,right,0,4.5661764999968,None,,,,,,,0,17,17,22,3674.4713348000078,,,,,,,,,,,,,,,,,,,,,,,3679.054132500023,3679.054208900023,,,,3674.460041299986,3674.465511366671,3674.4713348000078,3674.4713348000078,0.005262400023639202,0.01772910001454875,3676.5322288000025,3679.051234000013,right,0,4.5661764999968,None,None,,,,,,,,,,,,10_L2,001,2025-04-24_13h11.53.156,LangExperimentstress,2024.2.4,61.00670830007548,2025-04-24 13h12.03.904765 -0400,
sounds/05a_fumar.wav,CVC,Stressed,Match,present,num_1,0.0,0.2,1.15,1.36712555700231,1.48,1.56308830295138,101,10,11,12,13,14,0,0.95,1.16712555700231,1.28,1.36308830295138,05a_fumar.wav,,a,,18,18,0,,,,,None,5,left,0,3.561126200016588,None,,,,,,,0,18,18,38,3679.068343800027,,,,,,,,,,,,,,,,,,,,,,,3682.635297700006,3682.635326299991,,,,3679.0584748000256,3679.065601166691,3679.068343800027,3679.068343800027,0.004271899990271777,0.014952900004573166,3681.431707700016,3682.633219200012,left,0,3.561126200016588,None,None,,,,,,,,,,,,10_L2,001,2025-04-24_13h11.53.156,LangExperimentstress,2024.2.4,61.00670830007548,2025-04-24 13h12.03.904765 -0400,
sounds/40c_gastar.wav,CVC,Unstressed,Match,past,num_2,0.0,0.2,0.8300000000000001,0.8400000000000001,1.163436328125,1.183149609375,101,30,31,32,33,34,0,0.63,0.64,0.963436328125,0.983149609375,40c_gastar.wav,,c,,19,19,0,,,,,space,40,right,0,2.970583299989812,None,4.221937300055288,None,,,,,0,19,19,0,3682.650433700008,,,,,,,,,,,,,,,,,,,,,,,3685.638949699991,3689.884945400001,,,,3682.6388007000205,3682.6484664666973,3682.650433700008,3682.650433700008,0.003482899977825582,0.015789999975822866,3684.765695400012,3685.6347075999947,right,0,2.970583299989812,None,space,3685.6486595000024,3685.6486595000024,4.221937300055288,None,,,,,,,,10_L2,001,2025-04-24_13h11.53.156,LangExperimentstress,2024.2.4,61.00670830007548,2025-04-24 13h12.03.904765 -0400,
sounds/23a_tomar.wav,CVC,Stressed,Match,present,num_1,0.0,0.2,0.9453179615162032,0.95,1.08,1.158644495081018,101,10,11,12,13,14,0,0.745317961516203,0.75,0.88,0.958644495081018,23a_tomar.wav,,a,,20,20,0,,,,,None,23,left,0,6.480160099978093,None,,,,,,,0,20,20,39,3689.9023113999865,,,,,,,,,,,,,,,,,,,,,,,3696.3891319000395,3696.3892542000394,,,,3689.8900388000184,3689.8991680666845,3689.9023113999865,3689.9023113999865,0.005068900005426258,0.01846520003164187,3691.799088400032,3696.385909500008,left,0,6.480160099978093,None,None,,,,,,,,,,,,10_L2,001,2025-04-24_13h11.53.156,LangExperimentstress,2024.2.4,61.00670830007548,2025-04-24 13h12.03.904765 -0400,
sounds/38b_pagar.wav,CVC,Unstressed,Mismatch,present,num_1,0.0,0.2,1.166737304687499,1.185271158854166,1.29521061197916,1.4055712890624898,101,20,21,22,23,24,0,0.966737304687499,0.985271158854166,1.09521061197916,1.20557128906249,38b_pagar.wav,,b,,21,21,0,,,,,None,38,right,0,5.280680600029882,None,,,,,,,0,21,21,17,3696.404998800019,,,,,,,,,,,,,,,,,,,,,,,3701.705061500019,3701.705132800038,,,,3696.394020900014,3696.3994709666626,3696.404998800019,3696.404998800019,0.004767600039485842,0.01665340003091842,3698.6660558999865,3701.701239100017,right,0,5.280680600029882,None,None,,,,,,,,,,,,10_L2,001,2025-04-24_13h11.53.156,LangExperimentstress,2024.2.4,61.00670830007548,2025-04-24 13h12.03.904765 -0400,
sounds/03b_limpiar.wav,CVC,Unstressed,Mismatch,present,num_1,0.0,0.2,0.8500000000000001,0.932367621527777,1.26878515625,1.35808463541666,101,20,21,22,23,24,0,0.65,0.732367621527777,1.06878515625,1.15808463541666,03b_limpiar.wav,,b,,22,22,0,,,,,None,3,left,0,6.013084500038531,None,,,,,,,0,22,22,4,3701.7202752000303,,,,,,,,,,,,,,,,,,,,,,,3707.7389196000295,3707.7390249000164,,,,3701.7093775999965,3701.7157709666685,3701.7202752000303,3701.7202752000303,0.004248600045684725,0.01630660000955686,3703.8661947000073,3707.7356440000003,left,0,6.013084500038531,None,None,,,,,,,,,,,,10_L2,001,2025-04-24_13h11.53.156,LangExperimentstress,2024.2.4,61.00670830007548,2025-04-24 13h12.03.904765 -0400,
sounds/19a_marcar.wav,CVC,Stressed,Match,present,num_1,0.0,0.2,0.8400000000000001,0.97,1.245718359375,1.273519140625,101,10,11,12,13,14,0,0.64,0.77,1.045718359375,1.073519140625,19a_marcar.wav,,a,,23,23,0,,,,,None,19,right,0,2.555676899966784,None,,,,,,,0,23,23,19,3707.7540202999953,,,,,,,,,,,,,,,,,,,,,,,3710.318719800038,3710.3187586999848,,,,3707.7434453000315,3707.7495247667,3707.7540202999953,3707.7540202999953,0.004404100007377565,0.01583260000916198,3709.6494483000133,3710.316843800014,right,0,2.555676899966784,None,None,,,,,,,,,,,,10_L2,001,2025-04-24_13h11.53.156,LangExperimentstress,2024.2.4,61.00670830007548,2025-04-24 13h12.03.904765 -0400,
sounds/28d_parar.wav,CVC,Stressed,Mismatch,past,num_2,0.0,0.2,0.8458860026041659,0.862313736979166,1.018194683159722,1.032797113715277,101,40,41,42,43,44,0,0.645886002604166,0.662313736979166,0.818194683159722,0.832797113715277,28d_parar.wav,,d,,24,24,0,,,,,None,28,right,0,5.20865209994372,None,,,,,,,0,24,24,18,3710.3333748999867,,,,,,,,,,,,,,,,,,,,,,,3715.556347900012,3715.5564318000106,,,,3710.3207417000085,3710.332120966694,3710.3333748999867,3710.3333748999867,0.0019904000218957663,0.01549469999736175,3712.2493069000193,3715.553013500001,right,0,5.20865209994372,None,None,,,,,,,,,,,,10_L2,001,2025-04-24_13h11.53.156,LangExperimentstress,2024.2.4,61.00670830007548,2025-04-24 13h12.03.904765 -0400,
sounds/33b_culpar.wav,CVC,Unstressed,Mismatch,present,num_1,0.0,0.2,0.8606178431336959,0.869103678029107,1.109891641372144,1.131540467434179,101,20,21,22,23,24,0,0.660617843133696,0.669103678029107,0.909891641372144,0.931540467434179,33b_culpar.wav,,b,,25,25,0,,,,,None,33,right,0,0.246654300019145,None,,,,,,,0,25,25,35,3715.574561699992,,,,,,,,,,,,,,,,,,,,,,,3715.84888460004,3715.8489889000193,,,,3715.5618730999995,3715.5672083667055,3715.574561699992,3715.574561699992,0.005463699984829873,0.019417400006204844,,3715.8358885000343,right,0,0.246654300019145,None,None,,,,,,,,,,,,10_L2,001,2025-04-24_13h11.53.156,LangExperimentstress,2024.2.4,61.00670830007548,2025-04-24 13h12.03.904765 -0400,
sounds/30a_fundar.wav,CVC,Stressed,Match,present,num_1,0.0,0.2,0.77,0.91,1.112685546875,1.12,101,10,11,12,13,14,0,0.57,0.71,0.912685546875,0.92,30a_fundar.wav,,a,,26,26,0,,,,,None,30,left,0,2.9324239999987185,None,,,,,,,0,26,26,36,3715.8654278999893,,,,,,,,,,,,,,,,,,,,,,,3718.8086796000134,3718.808775099984,,,,3715.8532481000293,3715.8665217333555,3715.8654278999893,3715.8654278999893,0.004269400029443204,0.017560500011313707,3718.016287000035,3718.804048900027,left,0,2.9324239999987185,None,None,,,,,,,,,,,,10_L2,001,2025-04-24_13h11.53.156,LangExperimentstress,2024.2.4,61.00670830007548,2025-04-24 13h12.03.904765 -0400,
sounds/01d_salvar.wav,CVC,Stressed,Mismatch,past,num_2,0.0,0.2,0.8500000000000001,0.996069502314814,1.23,1.29,101,40,41,42,43,44,0,0.65,0.796069502314814,1.03,1.09,01d_salvar.wav,,d,,27,27,0,,,,,None,1,right,0,2.3213451000046916,None,,,,,,,0,27,27,37,3718.828232,,,,,,,,,,,,,,,,,,,,,,,3721.15473270003,3721.154821700009,,,,3718.8152649000403,3718.8173227667035,3718.828232,3718.828232,0.006569800025317818,0.02073819999350235,3720.883076100028,3721.1521045999834,right,0,2.3213451000046916,None,None,,,,,,,,,,,,10_L2,001,2025-04-24_13h11.53.156,LangExperimentstress,2024.2.4,61.00670830007548,2025-04-24 13h12.03.904765 -0400,
sounds/10d_vender.wav,CVC,Stressed,Mismatch,past,num_2,0.0,0.2,0.832830209056713,0.8775468199411529,1.109501330306288,1.158928471023364,101,40,41,42,43,44,0,0.632830209056713,0.677546819941153,0.909501330306288,0.958928471023364,10d_vender.wav,,d,,28,28,0,,,,,None,10,left,0,5.213119300024118,None,,,,,,,0,28,28,12,3721.1694744999986,,,,,,,,,,,,,,,,,,,,,,,3726.3906623999937,3726.3907644000137,,,,3721.1596460000146,3721.166184266684,3721.1694744999986,3721.1694744999986,0.004838799999561161,0.015477999986615032,3723.0833603999927,3726.386663799989,left,0,5.213119300024118,None,None,,,,,,,,,,,,10_L2,001,2025-04-24_13h11.53.156,LangExperimentstress,2024.2.4,61.00670830007548,2025-04-24 13h12.03.904765 -0400,
sounds/27c_tirar.wav,CVC,Unstressed,Match,past,num_2,0.0,0.2,0.8119442057291659,0.8307495153356481,0.9885306495949072,0.998621303530092,101,30,31,32,33,34,0,0.611944205729166,0.630749515335648,0.788530649594907,0.798621303530092,27c_tirar.wav,,c,,29,29,0,,,,,space,27,right,0,2.877694699971471,None,23.41718819999369,None,,,,,0,29,29,10,3726.4071878000395,,,,,,,,,,,,,,,,,,,,,,,3729.30632969999,3752.7370274999994,,,,3726.3967872000067,3726.400625466664,3726.4071878000395,3726.4071878000395,0.006024400005117059,0.017292100004851818,3728.4168527,3729.3026306999964,right,0,2.877694699971471,None,space,3729.3167033999925,3729.3167033999925,23.41718819999369,None,,,,,,,,10_L2,001,2025-04-24_13h11.53.156,LangExperimentstress,2024.2.4,61.00670830007548,2025-04-24 13h12.03.904765 -0400,
sounds/26a_bajar.wav,CVC,Stressed,Match,present,num_1,0.0,0.2,0.77,0.8999999999999999,1.03,1.171181705729166,101,10,11,12,13,14,0,0.57,0.7,0.83,0.971181705729166,26a_bajar.wav,,a,,30,30,0,,,,,None,26,right,0,11.662034299981315,None,,,,,,,0,30,30,13,3752.752428899985,,,,,,,,,,,,,,,,,,,,,,,3764.4236171999946,3764.4236968000187,,,,3752.742179199995,3752.751009766657,3752.752428899985,3752.752428899985,0.005092800012789667,0.016112899989821017,3754.833733000036,3764.419799800031,right,0,11.662034299981315,None,None,,,,,,,,,,,,10_L2,001,2025-04-24_13h11.53.156,LangExperimentstress,2024.2.4,61.00670830007548,2025-04-24 13h12.03.904765 -0400,
sounds/39b_manchar.wav,CVC,Unstressed,Mismatch,present,num_1,0.0,0.2,0.81,0.91203755787037,1.140584317129629,1.2139708912037,101,20,21,22,23,24,0,0.61,0.71203755787037,0.940584317129629,1.0139708912037,39b_manchar.wav,,b,,31,31,0,,,,,None,39,right,0,6.710847100010142,None,,,,,,,0,31,31,7,3764.439416899986,,,,,,,,,,,,,,,,,,,,,,,3771.1570591999916,3771.157149800041,,,,3764.428202899988,3764.433976166653,3764.439416899986,3764.439416899986,0.004514800035394728,0.016735200013499707,3766.7007674000342,3771.1536335999845,right,0,6.710847100010142,None,None,,,,,,,,,,,,10_L2,001,2025-04-24_13h11.53.156,LangExperimentstress,2024.2.4,61.00670830007548,2025-04-24 13h12.03.904765 -0400,
sounds/09c_cargar.wav,CVC,Unstressed,Match,past,num_2,0.0,0.2,0.81286744068287,0.8382251229745361,1.032634020543981,1.090594437210648,101,30,31,32,33,34,0,0.61286744068287,0.638225122974536,0.832634020543981,0.890594437210648,09c_cargar.wav,,c,,32,32,0,,,,,None,9,left,0,3.9918265000451356,None,,,,,,,0,32,32,28,3771.174059000041,,,,,,,,,,,,,,,,,,,,,,,3775.1693066000007,3775.1693557000253,,,,3771.161993900023,3771.1675244667026,3771.174059000041,3771.174059000041,0.004862300003878772,0.01809939998202026,3773.100609700021,3775.1678900000406,left,0,3.9918265000451356,None,None,,,,,,,,,,,,10_L2,001,2025-04-24_13h11.53.156,LangExperimentstress,2024.2.4,61.00670830007548,2025-04-24 13h12.03.904765 -0400,
sounds/04c_plantar.wav,CVC,Unstressed,Match,past,num_2,0.0,0.2,0.862877574458911,0.9343518689653568,1.20493812332404,1.21897569287037,101,30,31,32,33,34,0,0.662877574458911,0.734351868965357,1.00493812332404,1.01897569287037,04c_plantar.wav,,c,,33,33,0,,,,,None,4,left,0,3.2471633999957703,None,,,,,,,0,33,33,9,3775.1835378000396,,,,,,,,,,,,,,,,,,,,,,,3778.439947600011,3778.4400245000143,,,,3775.1711693000398,3775.183550966675,3775.1835378000396,3775.1835378000396,0.001811699999962002,0.014936099993065,3777.2179830000387,3778.4367899000063,left,0,3.2471633999957703,None,None,,,,,,,,,,,,10_L2,001,2025-04-24_13h11.53.156,LangExperimentstress,2024.2.4,61.00670830007548,2025-04-24 13h12.03.904765 -0400,
sounds/18b_cumplir.wav,CVC,Unstressed,Mismatch,present,num_1,0.0,0.2,1.2408027271412,1.25568597366898,1.46256310040509,1.54144430700231,101,20,21,22,23,24,0,1.0408027271412,1.05568597366898,1.26256310040509,1.34144430700231,18b_cumplir.wav,,b,,34,34,0,,,,,None,18,right,0,3.254665099957492,None,,,,,,,0,34,34,29,3778.455395500001,,,,,,,,,,,,,,,,,,,,,,,3781.7246076000156,3781.724710499984,,,,3778.444696600025,3778.451143066694,3778.455395500001,3778.455395500001,0.00469520001206547,0.016477699973620474,3780.6513814000064,3781.720518100017,right,0,3.254665099957492,None,None,,,,,,,,,,,,10_L2,001,2025-04-24_13h11.53.156,LangExperimentstress,2024.2.4,61.00670830007548,2025-04-24 13h12.03.904765 -0400,
sounds/06d_soplar.wav,CVC,Stressed,Mismatch,past,num_2,0.0,0.2,0.761291666666666,0.8899999999999999,1.102139687590422,1.166665581687644,101,40,41,42,43,44,0,0.561291666666666,0.69,0.902139687590422,0.966665581687644,06d_soplar.wav,,d,,35,35,0,,,,,None,6,left,0,3.3125621000071988,None,,,,,,,0,35,35,16,3781.7408436000114,,,,,,,,,,,,,,,,,,,,,,,3785.0734983999864,3785.0735820999835,,,,3781.730059500027,3781.7344271666993,3781.7408436000114,3781.7408436000114,0.00531310000224039,0.017251399985980242,3783.6181899000076,3785.070020299987,left,0,3.3125621000071988,None,None,,,,,,,,,,,,10_L2,001,2025-04-24_13h11.53.156,LangExperimentstress,2024.2.4,61.00670830007548,2025-04-24 13h12.03.904765 -0400,
sounds/02c_buscar.wav,CVC,Unstressed,Match,past,num_2,0.0,0.2,0.8700000000000001,1.07,1.26,1.40703946035879,101,30,31,32,33,34,0,0.67,0.87,1.06,1.20703946035879,02c_buscar.wav,,c,,36,36,0,,,,,None,2,left,0,8.148290400044061,None,,,,,,,0,36,36,34,3785.088986899995,,,,,,,,,,,,,,,,,,,,,,,3793.2578509000014,3793.257944000012,,,,3785.0782802000176,3785.084520966692,3785.088986899995,3785.088986899995,0.004700100049376488,0.016606300021521747,3787.217657100002,3793.2537011000095,left,0,8.148290400044061,None,None,,,,,,,,,,,,10_L2,001,2025-04-24_13h11.53.156,LangExperimentstress,2024.2.4,61.00670830007548,2025-04-24 13h12.03.904765 -0400,
sounds/24d_mirar.wav,CVC,Stressed,Mismatch,past,num_2,0.0,0.2,0.71,0.8119545789930551,0.9389863642939812,0.9746780743634248,101,40,41,42,43,44,0,0.51,0.611954578993055,0.738986364293981,0.774678074363425,24d_mirar.wav,,d,,37,37,0,,,,,None,24,left,0,3.8607398999738507,None,,,,,,,0,37,37,11,3793.2732810000307,,,,,,,,,,,,,,,,,,,,,,,3797.14089780004,3797.141005499987,,,,3793.2626658999943,3793.2678964666597,3793.2732810000307,3793.2732810000307,0.0047352000256069005,0.0163198999944143,3794.984561200021,3797.137058400025,left,0,3.8607398999738507,None,None,,,,,,,,,,,,10_L2,001,2025-04-24_13h11.53.156,LangExperimentstress,2024.2.4,61.00670830007548,2025-04-24 13h12.03.904765 -0400,
sounds/07c_tumbar.wav,CVC,Unstressed,Match,past,num_2,0.0,0.2,0.9084024930273432,0.9247360728973012,1.143289673625005,1.154847989033482,101,30,31,32,33,34,0,0.708402493027343,0.724736072897301,0.943289673625005,0.954847989033482,07c_tumbar.wav,,c,,38,38,0,,,,,None,7,right,0,4.187088000006042,None,,,,,,,0,38,38,6,3797.1558196000406,,,,,,,,,,,,,,,,,,,,,,,3801.357480400009,3801.3575692999875,,,,3797.1454558999976,3797.1512882667053,3797.1558196000406,3797.1558196000406,0.00446120003471151,0.015585399989504367,3799.1185219000326,3801.354209300014,right,0,4.187088000006042,None,None,,,,,,,,,,,,10_L2,001,2025-04-24_13h11.53.156,LangExperimentstress,2024.2.4,61.00670830007548,2025-04-24 13h12.03.904765 -0400,
sounds/21a_mezclar.wav,CVC,Stressed,Match,present,num_1,0.0,0.2,0.78,0.9121902777777772,1.20214212962962,1.27,101,10,11,12,13,14,0,0.58,0.712190277777777,1.00214212962962,1.07,21a_mezclar.wav,,a,,39,39,0,,,,,None,21,right,0,5.591579900006764,None,,,,,,,0,39,39,27,3801.3738822999876,,,,,,,,,,,,,,,,,,,,,,,3806.974458599987,3806.9745384000125,,,,3801.362529600039,3801.3682534666773,3801.3738822999876,3801.3738822999876,0.004955600015819073,0.01715089997742325,3803.402366299997,3806.971301499987,right,0,5.591579900006764,None,None,,,,,,,,,,,,10_L2,001,2025-04-24_13h11.53.156,LangExperimentstress,2024.2.4,61.00670830007548,2025-04-24 13h12.03.904765 -0400,
,,,,,,,,,,,,,,,,,,,,,,,,,,,,,,,,,,,,,,,,,,,,,,,,,,,,,,,,,,,,,,,,,,,,,,,,,,,,,,,,,,,,,,,,,,,,,,,3806.9747709000367,3806.9852738000336,3806.9852738000336,3820.9044812000357,space,13.915724600024987,None,10_L2,001,2025-04-24_13h11.53.156,LangExperimentstress,2024.2.4,61.00670830007548,2025-04-24 13h12.03.904765 -0400,
