sounds,syll,stress_unstress,suffix,present_past,corrAns,trigger_item,trigger_senonset,trigger_verbsonset,trigger_1_F0,trigger_suffix,trigger_2_F0,ID_item,ID_senonset,ID_verbonset,ID_1_F0,ID_suffix,ID_2_F0,ms_senonset,ms_verbonset,ms_1_F0,ms_suffix,ms_2_F0,file_name,sentence,cond,combo,thisN,thisTrialN,thisRepN,key_resp_4.keys,key_resp_4.corr,key_resp_4.rt,key_resp_4.duration,key_resp_5.keys,item_id,key_resp_2.keys,key_resp_2.corr,key_resp_2.rt,key_resp_2.duration,key_resp_5.rt,key_resp_5.duration,practice_trials.thisRepN,practice_trials.thisTrialN,practice_trials.thisN,practice_trials.thisIndex,experimental_trials.thisRepN,experimental_trials.thisTrialN,experimental_trials.thisN,experimental_trials.thisIndex,thisRow.t,notes,instructions.started,instr.started,key_resp.started,instructions.stopped,key_resp.keys,key_resp.rt,key_resp.duration,init_practice.started,init_practice.stopped,test_practice.started,test_sound_2.started,key_resp_4.started,polygon.started,serialPort_item_2.started,serialPort_item_2.stopped,test_sound_2.stopped,test_practice.stopped,practice_trials.key_resp_4.keys,practice_trials.key_resp_4.corr,practice_trials.key_resp_4.rt,practice_trials.key_resp_4.duration,takeabreak.started,takeabreak.stopped,practice_trials.key_resp_5.keys,init_trials.started,init_trials.stopped,test.started,test_sound.started,key_resp_2.started,polygon_2.started,serialPort_item.started,serialPort_item.stopped,test_sound.stopped,test.stopped,experimental_trials.key_resp_2.keys,experimental_trials.key_resp_2.corr,experimental_trials.key_resp_2.rt,experimental_trials.key_resp_2.duration,experimental_trials.key_resp_5.keys,text_3.started,key_resp_5.started,experimental_trials.key_resp_5.rt,experimental_trials.key_resp_5.duration,Thanks.started,text_2.started,key_resp_thanks.started,Thanks.stopped,key_resp_thanks.keys,key_resp_thanks.rt,key_resp_thanks.duration,participant,session,date,expName,psychopyVersion,frameRate,expStart,
,,,,,,,,,,,,,,,,,,,,,,,,,,,,,,,,,,,,,,,,,,,,,,,,,,,,0.0033242000499740243,0.01058610004838556,0.01058610004838556,3780.244931400055,space,3780.206711499952,None,,,,,,,,,,,,,,,,,,,,,,,,,,,,,,,,,,,,,,,,,,,,12_L2,001,2025-04-28_10h31.30.505,LangExperimentstress,2024.2.4,61.67197658889819,2025-04-28 10h31.46.806236 -0400,
,,,,,,,,,,,,,,,,,,,,,,,,,,,,,,,,,,,,,,,,,,,,,,,,,,,,,,,,,,,3780.245016300003,3780.2455234000226,,,,,,,,,,,,,,,,,,,,,,,,,,,,,,,,,,,,,,,,,,12_L2,001,2025-04-28_10h31.30.505,LangExperimentstress,2024.2.4,61.67197658889819,2025-04-28 10h31.46.806236 -0400,
sounds/p4d_cortar.wav,CVC,Stressed,Mismatch,past,num_2,0.0,0.205513,0.8629519999999999,0.984841,1.219715,1.27,101,40,41,42,43,44,0.005513,0.662952,0.784841,1.019715,1.07,p4d_cortar.wav,p4,d,p4d,0,0,0,left,0,4.426901999977417,None,None,,,,,,,,0,0,0,3,,,,,3780.269456100068,,,,,,,,,,,3780.2597008000594,3780.275031099981,3780.269456100068,3780.269456100068,0.014209500048309565,0.0250761000206694,3782.7914863000624,3784.7107183999615,left,0,4.426901999977417,None,3784.714084099978,3784.7141690000426,None,,,,,,,,,,,,,,,,,,,,,,,,,,,12_L2,001,2025-04-28_10h31.30.505,LangExperimentstress,2024.2.4,61.67197658889819,2025-04-28 10h31.46.806236 -0400,
sounds/p3c_saltar.wav,CVC,Unstressed,Match,past,num_2,0.0,0.205513,0.8629519999999999,0.984841,1.219715,1.27,101,30,31,32,33,34,0.005513,0.662952,0.784841,1.019715,1.07,p3c_saltar.wav,p3,c,p3c,1,1,0,right,0,3.0452723000198603,None,None,,,,,,,,0,1,1,2,,,,,3784.731236099964,,,,,,,,,,,3784.7206157000037,3784.7249806667137,3784.731236099964,3784.731236099964,0.0064928000792860985,0.017971700057387352,3786.8251971000573,3787.793758200016,right,0,3.0452723000198603,None,3787.7974327000557,3787.7975180000067,None,,,,,,,,,,,,,,,,,,,,,,,,,,,12_L2,001,2025-04-28_10h31.30.505,LangExperimentstress,2024.2.4,61.67197658889819,2025-04-28 10h31.46.806236 -0400,
sounds/p1a_saltar.wav,CVC,Stressed,Match,present,num_1,0.0,0.205513,0.8629519999999999,0.984841,1.219715,1.27,101,10,11,12,13,14,0.005513,0.662952,0.784841,1.019715,1.07,p1a_saltar.wav,p1,a,p1a,2,2,0,right,0,3.7528798000421375,None,None,,,,,,,,0,2,2,0,,,,,3787.8163428000407,,,,,,,,,,,3787.805017200066,3787.808014266721,3787.8163428000407,3787.8163428000407,0.007527999929152429,0.019925599917769432,3790.058773400029,3791.578853199957,right,0,3.7528798000421375,None,3791.582668600022,3791.5827496000566,None,,,,,,,,,,,,,,,,,,,,,,,,,,,12_L2,001,2025-04-28_10h31.30.505,LangExperimentstress,2024.2.4,61.67197658889819,2025-04-28 10h31.46.806236 -0400,
sounds/p2b_cortar.wav,CVC,Unstressed,Mismatch,present,num_1,0.0,0.205513,0.8629519999999999,0.984841,1.219715,1.27,101,20,21,22,23,24,0.005513,0.662952,0.784841,1.019715,1.07,p2b_cortar.wav,p2,b,p2b,3,3,0,right,0,3.0639381000073627,None,None,,,,,,,,0,3,3,1,,,,,3791.6013777999906,,,,,,,,,,,3791.5908681000583,3791.5930459666456,3791.6013777999906,3791.6013777999906,0.008134800009429455,0.01948000001721084,3793.8756559999892,3794.6776492999634,right,0,3.0639381000073627,None,3794.6815945999697,3794.6816891999915,None,,,,,,,,,,,,,,,,,,,,,,,,,,,12_L2,001,2025-04-28_10h31.30.505,LangExperimentstress,2024.2.4,61.67197658889819,2025-04-28 10h31.46.806236 -0400,
,,,,,,,,,,,,,,,,,,,,,,,,,,,,,,,,,,,,,,,,,,,,,,,,,,,,3794.6819163999753,3794.6916565999854,3794.6916565999854,3840.6288664999884,space,45.925830899970606,None,,,,,,,,,,,,,,,,,,,,,,,,,,,,,,,,,,,,,,,,,,,,12_L2,001,2025-04-28_10h31.30.505,LangExperimentstress,2024.2.4,61.67197658889819,2025-04-28 10h31.46.806236 -0400,
,,,,,,,,,,,,,,,,,,,,,,,,,,,,,,,,,,,,,,,,,,,,,,,,,,,,,,,,,,,,,,,,,,,,,,,,,,,,3840.628972799983,3840.629911700031,,,,,,,,,,,,,,,,,,,,,,,,,12_L2,001,2025-04-28_10h31.30.505,LangExperimentstress,2024.2.4,61.67197658889819,2025-04-28 10h31.46.806236 -0400,
sounds/04c_plantar.wav,CVC,Unstressed,Match,past,num_2,0.0,0.2,0.862877574458911,0.9343518689653568,1.20493812332404,1.21897569287037,101,30,31,32,33,34,0,0.662877574458911,0.734351868965357,1.00493812332404,1.01897569287037,04c_plantar.wav,,c,,0,0,0,,,,,None,4,left,0,2.7454155000159517,None,,,,,,,0,0,0,9,3840.663514100015,,,,,,,,,,,,,,,,,,,,,,,3843.415884100017,3843.415969799971,,,,3840.6524661000585,3840.6598961333593,3840.663514100015,3840.663514100015,0.0225497999927029,0.034602300031110644,3842.7091177999973,3843.4126389999874,left,0,2.7454155000159517,None,None,,,,,,,,,,,,12_L2,001,2025-04-28_10h31.30.505,LangExperimentstress,2024.2.4,61.67197658889819,2025-04-28 10h31.46.806236 -0400,
sounds/06d_soplar.wav,CVC,Stressed,Mismatch,past,num_2,0.0,0.2,0.761291666666666,0.8899999999999999,1.102139687590422,1.166665581687644,101,40,41,42,43,44,0,0.561291666666666,0.69,0.902139687590422,0.966665581687644,06d_soplar.wav,,d,,1,1,0,,,,,None,6,left,0,2.974440100020729,None,,,,,,,0,1,1,16,3843.434360199957,,,,,,,,,,,,,,,,,,,,,,,3846.416040100041,3846.4161182000535,,,,3843.4223085000413,3843.4265661666327,3843.434360199957,3843.434360199957,0.0063708999659866095,0.019671999965794384,3845.309134499985,3846.4120073000668,left,0,2.974440100020729,None,None,,,,,,,,,,,,12_L2,001,2025-04-28_10h31.30.505,LangExperimentstress,2024.2.4,61.67197658889819,2025-04-28 10h31.46.806236 -0400,
sounds/14b_borrar.wav,CVC,Unstressed,Mismatch,present,num_1,0.0,0.2,0.72,0.770187630208333,0.851961241319444,0.964399956597222,101,20,21,22,23,24,0,0.52,0.570187630208333,0.651961241319444,0.764399956597222,14b_borrar.wav,,b,,2,2,0,,,,,None,14,right,0,2.390763000003062,None,,,,,,,0,2,2,20,3846.4340792000294,,,,,,,,,,,,,,,,,,,,,,,3848.832896900014,3848.8329692999832,,,,3846.422684099991,3846.4262355666765,3846.4340792000294,3846.4340792000294,0.00658740010112524,0.018957000109367073,3848.3929022999946,3848.829047700041,right,0,2.390763000003062,None,None,,,,,,,,,,,,12_L2,001,2025-04-28_10h31.30.505,LangExperimentstress,2024.2.4,61.67197658889819,2025-04-28 10h31.46.806236 -0400,
sounds/03b_limpiar.wav,CVC,Unstressed,Mismatch,present,num_1,0.0,0.2,0.8500000000000001,0.932367621527777,1.26878515625,1.35808463541666,101,20,21,22,23,24,0,0.65,0.732367621527777,1.06878515625,1.15808463541666,03b_limpiar.wav,,b,,3,3,0,,,,,None,3,right,0,2.8126284999307245,None,,,,,,,0,3,3,4,3848.8527771000518,,,,,,,,,,,,,,,,,,,,,,,3851.683027800056,3851.683121600072,,,,3848.840501900064,3848.843303966631,3848.8527771000518,3848.8527771000518,0.007636900059878826,0.020834699971601367,3850.992860700004,3851.6789243000094,right,0,2.8126284999307245,None,None,,,,,,,,,,,,12_L2,001,2025-04-28_10h31.30.505,LangExperimentstress,2024.2.4,61.67197658889819,2025-04-28 10h31.46.806236 -0400,
sounds/19a_marcar.wav,CVC,Stressed,Match,present,num_1,0.0,0.2,0.8400000000000001,0.97,1.245718359375,1.273519140625,101,10,11,12,13,14,0,0.64,0.77,1.045718359375,1.073519140625,19a_marcar.wav,,a,,4,4,0,,,,,None,19,right,0,2.5627357999328524,None,,,,,,,0,4,4,19,3851.7022096000146,,,,,,,,,,,,,,,,,,,,,,,3854.2821496999823,3854.2822338000406,,,,3851.690137400059,3851.692998566727,3851.7022096000146,3851.7022096000146,0.007052999921143055,0.020154799916781485,3853.60958379996,3854.2788276000647,right,0,2.5627357999328524,None,None,,,,,,,,,,,,12_L2,001,2025-04-28_10h31.30.505,LangExperimentstress,2024.2.4,61.67197658889819,2025-04-28 10h31.46.806236 -0400,
sounds/17d_tragar.wav,CVC,Stressed,Mismatch,past,num_2,0.0,0.2,1.070609360532407,1.117973654513888,1.30915316840277,1.35458539534397,101,40,41,42,43,44,0,0.870609360532407,0.917973654513888,1.10915316840277,1.15458539534397,17d_tragar.wav,,d,,5,5,0,,,,,None,17,left,0,2.7147776999045163,None,,,,,,,0,5,5,26,3854.3020270999987,,,,,,,,,,,,,,,,,,,,,,,3857.0326789000537,3857.0327701000497,,,,3854.2903603999875,3854.292997566696,3854.3020270999987,3854.3020270999987,0.008224899997003376,0.020961300004273653,3856.6098693000386,3857.02923980006,left,0,2.7147776999045163,None,None,,,,,,,,,,,,12_L2,001,2025-04-28_10h31.30.505,LangExperimentstress,2024.2.4,61.67197658889819,2025-04-28 10h31.46.806236 -0400,
sounds/36c_bordar.wav,CVC,Unstressed,Match,past,num_2,0.0,0.2,1.0,1.078468243634259,1.3288624855324,1.3414992042824,101,30,31,32,33,34,0,0.8,0.878468243634259,1.1288624855324,1.1414992042824,36c_bordar.wav,,c,,6,6,0,,,,,None,36,left,0,2.6519939999561757,None,,,,,,,0,6,6,1,3857.0530977000017,,,,,,,,,,,,,,,,,,,,,,,3859.7164207999595,3859.716515899985,,,,3857.0407944000326,3857.043356566636,3857.0530977000017,3857.0530977000017,0.008174599963240325,0.021504999953322113,3859.326104399981,3859.713041799958,left,0,2.6519939999561757,None,None,,,,,,,,,,,,12_L2,001,2025-04-28_10h31.30.505,LangExperimentstress,2024.2.4,61.67197658889819,2025-04-28 10h31.46.806236 -0400,
sounds/34c_formar.wav,CVC,Unstressed,Match,past,num_2,0.0,0.2,0.876373676215277,0.992687651909722,1.14,1.26319767795138,101,30,31,32,33,34,0,0.676373676215277,0.792687651909722,0.94,1.06319767795138,34c_formar.wav,,c,,7,7,0,,,,,None,34,right,0,3.539179199957289,None,,,,,,,0,7,7,2,3859.736273000017,,,,,,,,,,,,,,,,,,,,,,,3863.2822135000024,3863.282286199974,,,,3859.7243669000454,3859.726885766668,3859.736273000017,3859.736273000017,0.007999900029972196,0.020676200045272708,3861.9771679000696,3863.279347200063,right,0,3.539179199957289,None,None,,,,,,,,,,,,12_L2,001,2025-04-28_10h31.30.505,LangExperimentstress,2024.2.4,61.67197658889819,2025-04-28 10h31.46.806236 -0400,
sounds/40c_gastar.wav,CVC,Unstressed,Match,past,num_2,0.0,0.2,0.8300000000000001,0.8400000000000001,1.163436328125,1.183149609375,101,30,31,32,33,34,0,0.63,0.64,0.963436328125,0.983149609375,40c_gastar.wav,,c,,8,8,0,,,,,None,40,left,0,2.500449800048955,None,,,,,,,0,8,8,0,3863.3004453000613,,,,,,,,,,,,,,,,,,,,,,,3865.8127749999985,3865.81281579996,,,,3863.289147600066,3863.293495366645,3863.3004453000613,3863.3004453000613,0.006886900053359568,0.01953619997948408,3865.4103431999683,3865.810861899983,left,0,2.500449800048955,None,None,,,,,,,,,,,,12_L2,001,2025-04-28_10h31.30.505,LangExperimentstress,2024.2.4,61.67197658889819,2025-04-28 10h31.46.806236 -0400,
sounds/05a_fumar.wav,CVC,Stressed,Match,present,num_1,0.0,0.2,1.15,1.36712555700231,1.48,1.56308830295138,101,10,11,12,13,14,0,0.95,1.16712555700231,1.28,1.36308830295138,05a_fumar.wav,,a,,9,9,0,,,,,space,5,right,0,2.8529391000047326,None,11.091569499927573,None,,,,,0,9,9,38,3865.8281040999573,,,,,,,,,,,,,,,,,,,,,,,3868.69992439996,3879.812049100059,,,,3865.8170506999595,3865.8262232667225,3865.8281040999573,3865.8281040999573,0.004251300008036196,0.01602229999843985,3868.1933899000287,3868.6957894000225,right,0,2.8529391000047326,None,space,3868.71002150001,3868.71002150001,11.091569499927573,None,,,,,,,,12_L2,001,2025-04-28_10h31.30.505,LangExperimentstress,2024.2.4,61.67197658889819,2025-04-28 10h31.46.806236 -0400,
sounds/02c_buscar.wav,CVC,Unstressed,Match,past,num_2,0.0,0.2,0.8700000000000001,1.07,1.26,1.40703946035879,101,30,31,32,33,34,0,0.67,0.87,1.06,1.20703946035879,02c_buscar.wav,,c,,10,10,0,,,,,None,2,left,0,2.596406300086528,None,,,,,,,0,10,10,34,3879.828512200038,,,,,,,,,,,,,,,,,,,,,,,3882.4326612000586,3882.432736000046,,,,3879.8183964999625,3879.8266786666977,3879.828512200038,3879.828512200038,0.006318800034932792,0.017322200001217425,3881.9766210999805,3882.42981900007,left,0,2.596406300086528,None,None,,,,,,,,,,,,12_L2,001,2025-04-28_10h31.30.505,LangExperimentstress,2024.2.4,61.67197658889819,2025-04-28 10h31.46.806236 -0400,
sounds/31d_tocar.wav,CVC,Stressed,Mismatch,past,num_2,0.0,0.2,0.8493931756807,0.8650112062639721,1.006860547391531,1.049162047334928,101,40,41,42,43,44,0,0.6493931756807,0.665011206263972,0.806860547391531,0.849162047334928,31d_tocar.wav,,d,,11,11,0,,,,,None,31,left,0,2.2964006999973208,None,,,,,,,0,11,11,30,3882.4485824999865,,,,,,,,,,,,,,,,,,,,,,,3884.765173700056,3884.7652397999773,,,,3882.4384132999694,3882.443921966657,3882.4485824999865,3882.4485824999865,0.0056971999583765864,0.01663839991670102,3884.3602805000264,3884.7621731000254,left,0,2.2964006999973208,None,None,,,,,,,,,,,,12_L2,001,2025-04-28_10h31.30.505,LangExperimentstress,2024.2.4,61.67197658889819,2025-04-28 10h31.46.806236 -0400,
sounds/33b_culpar.wav,CVC,Unstressed,Mismatch,present,num_1,0.0,0.2,0.8606178431336959,0.869103678029107,1.109891641372144,1.131540467434179,101,20,21,22,23,24,0,0.660617843133696,0.669103678029107,0.909891641372144,0.931540467434179,33b_culpar.wav,,b,,12,12,0,,,,,None,33,right,0,2.571116599952802,None,,,,,,,0,12,12,35,3884.782378999982,,,,,,,,,,,,,,,,,,,,,,,3887.36561800004,3887.3656881999923,,,,3884.7715550999856,3884.7770124666317,3884.782378999982,3884.782378999982,0.006329700001515448,0.018119600019417703,3886.960199199966,3887.3624680000357,right,0,2.571116599952802,None,None,,,,,,,,,,,,12_L2,001,2025-04-28_10h31.30.505,LangExperimentstress,2024.2.4,61.67197658889819,2025-04-28 10h31.46.806236 -0400,
sounds/20c_cubrir.wav,CVC,Unstressed,Match,past,num_2,0.0,0.2,0.980138641742621,1.01,1.192436112212021,1.28412143493692,101,30,31,32,33,34,0,0.780138641742621,0.81,0.992436112212021,1.08412143493692,20c_cubrir.wav,,c,,13,13,0,,,,,None,20,left,0,2.530015100026503,None,,,,,,,0,13,13,31,3887.383875700063,,,,,,,,,,,,,,,,,,,,,,,3889.933255400043,3889.933330800035,,,,3887.372353599989,3887.3767107666395,3887.383875700063,3887.383875700063,0.006691299960948527,0.019127100007608533,3889.510654999991,3889.929325300036,left,0,2.530015100026503,None,None,,,,,,,,,,,,12_L2,001,2025-04-28_10h31.30.505,LangExperimentstress,2024.2.4,61.67197658889819,2025-04-28 10h31.46.806236 -0400,
sounds/37b_pasar.wav,CVC,Unstressed,Mismatch,present,num_1,0.0,0.2,1.033132486979166,1.052087565104166,1.159499674479166,1.27702115885416,101,20,21,22,23,24,0,0.833132486979166,0.852087565104166,0.959499674479166,1.07702115885416,37b_pasar.wav,,b,,14,14,0,,,,,None,37,right,0,2.392773100058548,None,,,,,,,0,14,14,23,3889.952110199956,,,,,,,,,,,,,,,,,,,,,,,3892.351266499958,3892.351356100058,,,,3889.94023060007,3889.9436498666805,3889.952110199956,3889.952110199956,0.006926300004124641,0.019842399982735515,3892.0600820999825,3892.347323499969,right,0,2.392773100058548,None,None,,,,,,,,,,,,12_L2,001,2025-04-28_10h31.30.505,LangExperimentstress,2024.2.4,61.67197658889819,2025-04-28 10h31.46.806236 -0400,
sounds/26a_bajar.wav,CVC,Stressed,Match,present,num_1,0.0,0.2,0.77,0.8999999999999999,1.03,1.171181705729166,101,10,11,12,13,14,0,0.57,0.7,0.83,0.971181705729166,26a_bajar.wav,,a,,15,15,0,,,,,None,26,right,0,2.2790000000968575,None,,,,,,,0,15,15,13,3892.3697791000595,,,,,,,,,,,,,,,,,,,,,,,3894.666416799999,3894.666516800062,,,,3892.35767930001,3892.360853966737,3892.3697791000595,3892.3697791000595,0.0063449000008404255,0.019658699980936944,3894.443516200059,3894.662709300057,right,0,2.2790000000968575,None,None,,,,,,,,,,,,12_L2,001,2025-04-28_10h31.30.505,LangExperimentstress,2024.2.4,61.67197658889819,2025-04-28 10h31.46.806236 -0400,
sounds/18b_cumplir.wav,CVC,Unstressed,Mismatch,present,num_1,0.0,0.2,1.2408027271412,1.25568597366898,1.46256310040509,1.54144430700231,101,20,21,22,23,24,0,1.0408027271412,1.05568597366898,1.26256310040509,1.34144430700231,18b_cumplir.wav,,b,,16,16,0,,,,,None,18,right,0,2.8220889000222087,None,,,,,,,0,16,16,29,3894.6829758000094,,,,,,,,,,,,,,,,,,,,,,,3897.515904800035,3897.5159817000385,,,,3894.6723435999593,3894.6769920667325,3894.6829758000094,3894.6829758000094,0.0058373999781906605,0.017553700017742813,3896.8772108000703,3897.5127494999906,right,0,2.8220889000222087,None,None,,,,,,,,,,,,12_L2,001,2025-04-28_10h31.30.505,LangExperimentstress,2024.2.4,61.67197658889819,2025-04-28 10h31.46.806236 -0400,
sounds/09c_cargar.wav,CVC,Unstressed,Match,past,num_2,0.0,0.2,0.81286744068287,0.8382251229745361,1.032634020543981,1.090594437210648,101,30,31,32,33,34,0,0.61286744068287,0.638225122974536,0.832634020543981,0.890594437210648,09c_cargar.wav,,c,,17,17,0,,,,,None,9,left,0,2.332500600023195,None,,,,,,,0,17,17,28,3897.5330075999955,,,,,,,,,,,,,,,,,,,,,,,3899.883023799979,3899.8831202000147,,,,3897.522552700015,3897.5270950666786,3897.5330075999955,3897.5330075999955,0.006595799932256341,0.017952899914234877,3899.477156499983,3899.8798771,left,0,2.332500600023195,None,None,,,,,,,,,,,,12_L2,001,2025-04-28_10h31.30.505,LangExperimentstress,2024.2.4,61.67197658889819,2025-04-28 10h31.46.806236 -0400,
sounds/25b_ganar.wav,CVC,Unstressed,Mismatch,present,num_1,0.0,0.2,1.152097938368055,1.15990068760488,1.28904165650454,1.37272500435153,101,20,21,22,23,24,0,0.952097938368055,0.95990068760488,1.08904165650454,1.17272500435153,25b_ganar.wav,,b,,18,18,0,,,,,None,25,right,0,2.4857585000572726,None,,,,,,,0,18,18,8,3899.9002244999865,,,,,,,,,,,,,,,,,,,,,,,3902.400342600071,3902.4004191000713,,,,3899.8900070000673,3899.8940806666546,3899.9002244999865,3899.9002244999865,0.006892699981108308,0.018033900065347552,3902.2439849000657,3902.3964614999713,right,0,2.4857585000572726,None,None,,,,,,,,,,,,12_L2,001,2025-04-28_10h31.30.505,LangExperimentstress,2024.2.4,61.67197658889819,2025-04-28 10h31.46.806236 -0400,
sounds/32d_pulsar.wav,CVC,Stressed,Mismatch,past,num_2,0.0,0.2,0.796440212673611,0.8294641710069439,0.99,1.097783832465277,101,40,41,42,43,44,0,0.596440212673611,0.629464171006944,0.79,0.897783832465277,32d_pulsar.wav,,d,,19,19,0,,,,,space,32,left,0,2.565001300070435,None,7.814452399965376,None,,,,,0,19,19,24,3902.420178200002,,,,,,,,,,,,,,,,,,,,,,,3905.0002804000396,3912.8301922000246,,,,3902.408141199965,3902.410840466681,3902.420178200002,3902.420178200002,0.007811399991624057,0.02096460002940148,3904.243878600071,3904.9968838000204,left,0,2.565001300070435,None,space,3905.0104899000144,3905.0104899000144,7.814452399965376,None,,,,,,,,12_L2,001,2025-04-28_10h31.30.505,LangExperimentstress,2024.2.4,61.67197658889819,2025-04-28 10h31.46.806236 -0400,
sounds/27c_tirar.wav,CVC,Unstressed,Match,past,num_2,0.0,0.2,0.8119442057291659,0.8307495153356481,0.9885306495949072,0.998621303530092,101,30,31,32,33,34,0,0.611944205729166,0.630749515335648,0.788530649594907,0.798621303530092,27c_tirar.wav,,c,,20,20,0,,,,,None,27,left,0,2.0507093999767676,None,,,,,,,0,20,20,10,3912.8468490999658,,,,,,,,,,,,,,,,,,,,,,,3914.9177772999974,3914.917866499978,,,,3912.835669400054,3912.8445378667134,3912.8468490999658,3912.8468490999658,0.005445900023914874,0.017356200027279556,3914.8440736000193,3914.9134147999575,left,0,2.0507093999767676,None,None,,,,,,,,,,,,12_L2,001,2025-04-28_10h31.30.505,LangExperimentstress,2024.2.4,61.67197658889819,2025-04-28 10h31.46.806236 -0400,
sounds/29a_pesar.wav,CVC,Stressed,Match,present,num_1,0.0,0.2,0.91328417532552,0.925531286730473,1.03,1.150619522602117,101,10,11,12,13,14,0,0.71328417532552,0.725531286730473,0.83,0.950619522602117,29a_pesar.wav,,a,,21,21,0,,,,,None,29,right,0,2.517189299920574,None,,,,,,,0,21,21,32,3914.939148299978,,,,,,,,,,,,,,,,,,,,,,,3917.4667171000037,3917.466790699982,,,,3914.9257589000044,3914.9274707666523,3914.939148299978,3914.939148299978,0.00806109991390258,0.02268169994931668,3916.8444297000533,3917.4632445999887,right,0,2.517189299920574,None,None,,,,,,,,,,,,12_L2,001,2025-04-28_10h31.30.505,LangExperimentstress,2024.2.4,61.67197658889819,2025-04-28 10h31.46.806236 -0400,
sounds/38b_pagar.wav,CVC,Unstressed,Mismatch,present,num_1,0.0,0.2,1.166737304687499,1.185271158854166,1.29521061197916,1.4055712890624898,101,20,21,22,23,24,0,0.966737304687499,0.985271158854166,1.09521061197916,1.20557128906249,38b_pagar.wav,,b,,22,22,0,,,,,None,38,right,0,2.501918000052683,None,,,,,,,0,22,22,17,3917.4831877000397,,,,,,,,,,,,,,,,,,,,,,,3920.00040670007,3920.000492500025,,,,3917.4721187000396,3917.4775612666895,3917.4831877000397,3917.4831877000397,0.005339300027117133,0.01733459997922182,3919.744269900024,3919.99726730003,right,0,2.501918000052683,None,None,,,,,,,,,,,,12_L2,001,2025-04-28_10h31.30.505,LangExperimentstress,2024.2.4,61.67197658889819,2025-04-28 10h31.46.806236 -0400,
sounds/01d_salvar.wav,CVC,Stressed,Mismatch,past,num_2,0.0,0.2,0.8500000000000001,0.996069502314814,1.23,1.29,101,40,41,42,43,44,0,0.65,0.796069502314814,1.03,1.09,01d_salvar.wav,,d,,23,23,0,,,,,None,1,left,0,2.3419742999831215,None,,,,,,,0,23,23,37,3920.019011000055,,,,,,,,,,,,,,,,,,,,,,,3922.3683200000087,3922.368421399966,,,,3920.00754520006,3920.0114750667167,3920.019011000055,3920.019011000055,0.00707790011074394,0.019547500065527856,3922.0944387000054,3922.364372799988,left,0,2.3419742999831215,None,None,,,,,,,,,,,,12_L2,001,2025-04-28_10h31.30.505,LangExperimentstress,2024.2.4,61.67197658889819,2025-04-28 10h31.46.806236 -0400,
sounds/21a_mezclar.wav,CVC,Stressed,Match,present,num_1,0.0,0.2,0.78,0.9121902777777772,1.20214212962962,1.27,101,10,11,12,13,14,0,0.58,0.712190277777777,1.00214212962962,1.07,21a_mezclar.wav,,a,,24,24,0,,,,,None,21,right,0,2.4595418999670073,None,,,,,,,0,24,24,27,3922.388902000035,,,,,,,,,,,,,,,,,,,,,,,3924.867011500057,3924.8670915999683,,,,3922.3756716999924,3922.377844666659,3922.388902000035,3922.388902000035,0.00736520008649677,0.021632100106216967,3924.410457800026,3924.863164099981,right,0,2.4595418999670073,None,None,,,,,,,,,,,,12_L2,001,2025-04-28_10h31.30.505,LangExperimentstress,2024.2.4,61.67197658889819,2025-04-28 10h31.46.806236 -0400,
sounds/10d_vender.wav,CVC,Stressed,Mismatch,past,num_2,0.0,0.2,0.832830209056713,0.8775468199411529,1.109501330306288,1.158928471023364,101,40,41,42,43,44,0,0.632830209056713,0.677546819941153,0.909501330306288,0.958928471023364,10d_vender.wav,,d,,25,25,0,,,,,None,10,left,0,2.532437999965623,None,,,,,,,0,25,25,12,3924.8836231000023,,,,,,,,,,,,,,,,,,,,,,,3927.432676400058,3927.432742099976,,,,3924.872808099957,3924.8775460667134,3924.8836231000023,3924.8836231000023,0.0057339000049978495,0.017491500009782612,3926.794138700003,3927.4303591999924,left,0,2.532437999965623,None,None,,,,,,,,,,,,12_L2,001,2025-04-28_10h31.30.505,LangExperimentstress,2024.2.4,61.67197658889819,2025-04-28 10h31.46.806236 -0400,
sounds/08d_filtrar.wav,CVC,Stressed,Mismatch,past,num_2,0.0,0.2,0.7526856695589441,0.87808115762362,1.118901843962886,1.172598812485867,101,40,41,42,43,44,0,0.552685669558944,0.67808115762362,0.918901843962886,0.972598812485867,08d_filtrar.wav,,d,,26,26,0,,,,,None,8,left,0,2.425460599944927,None,,,,,,,0,26,26,15,3927.448316700058,,,,,,,,,,,,,,,,,,,,,,,3929.8847378999926,3929.8848209000425,,,,3927.4378915000707,3927.444919166683,3927.448316700058,3927.448316700058,0.005169000010937452,0.01640020008198917,3929.2110885999864,3929.880727599957,left,0,2.425460599944927,None,None,,,,,,,,,,,,12_L2,001,2025-04-28_10h31.30.505,LangExperimentstress,2024.2.4,61.67197658889819,2025-04-28 10h31.46.806236 -0400,
sounds/15b_partir.wav,CVC,Unstressed,Mismatch,present,num_1,0.0,0.2,0.826865400752314,0.842973894883327,1.1042888772729471,1.120815958498066,101,20,21,22,23,24,0,0.626865400752314,0.642973894883327,0.904288877272947,0.920815958498066,15b_partir.wav,,b,,27,27,0,,,,,None,15,right,0,2.7117423000745475,None,,,,,,,0,27,27,22,3929.9055874999613,,,,,,,,,,,,,,,,,,,,,,,3932.63507389999,3932.6351615999592,,,,3929.8924154000124,3929.8948068667128,3929.9055874999613,3929.9055874999613,0.007682700059376657,0.022022400051355362,3931.9614931000397,3932.630880499957,right,0,2.7117423000745475,None,None,,,,,,,,,,,,12_L2,001,2025-04-28_10h31.30.505,LangExperimentstress,2024.2.4,61.67197658889819,2025-04-28 10h31.46.806236 -0400,
sounds/11a_pegar.wav,CVC,Stressed,Match,present,num_1,0.0,0.2,0.8182808977343741,0.831294515585661,0.98,1.012063288108519,101,10,11,12,13,14,0,0.618280897734374,0.631294515585661,0.78,0.812063288108519,11a_pegar.wav,,a,,28,28,0,,,,,None,11,right,0,2.4656599999871105,None,,,,,,,0,28,28,3,3932.6546772000147,,,,,,,,,,,,,,,,,,,,,,,3935.134350400069,3935.1344250000548,,,,3932.641972000012,3932.644835266696,3932.6546772000147,3932.6546772000147,0.006869100034236908,0.02083409996703267,3934.594504500041,3935.130598000018,right,0,2.4656599999871105,None,None,,,,,,,,,,,,12_L2,001,2025-04-28_10h31.30.505,LangExperimentstress,2024.2.4,61.67197658889819,2025-04-28 10h31.46.806236 -0400,
sounds/13c_montar.wav,CVC,Unstressed,Match,past,num_2,0.0,0.2,0.8800000000000001,0.98,1.24543012152777,1.2594709201388798,101,30,31,32,33,34,0,0.68,0.78,1.04543012152777,1.05947092013888,13c_montar.wav,,c,,29,29,0,,,,,space,13,left,0,2.6492253999458626,None,7.484917899942957,None,,,,,0,29,29,33,3935.1526396999834,,,,,,,,,,,,,,,,,,,,,,,3937.817067999975,3945.314783500042,,,,3935.1411917000078,3935.1447588666965,3935.1526396999834,3935.1526396999834,0.006795400055125356,0.01935300009790808,3937.4446693999926,3937.813727400033,left,0,2.6492253999458626,None,space,3937.82776809996,3937.82776809996,7.484917899942957,None,,,,,,,,12_L2,001,2025-04-28_10h31.30.505,LangExperimentstress,2024.2.4,61.67197658889819,2025-04-28 10h31.46.806236 -0400,
sounds/35b_secar.wav,CVC,Unstressed,Mismatch,present,num_1,0.0,0.2,0.8990044921875,1.025708658854166,1.179689416956018,1.20652606336805,101,20,21,22,23,24,0,0.6990044921875,0.825708658854166,0.979689416956018,1.00652606336805,35b_secar.wav,,b,,30,30,0,,,,,None,35,right,0,2.331882300088182,None,,,,,,,0,30,30,5,3945.3331054999726,,,,,,,,,,,,,,,,,,,,,,,3947.6843698000303,3947.684457399999,,,,3945.322516400018,3945.328915566734,3945.3331054999726,3945.3331054999726,0.0077043999917805195,0.01928150001913309,3947.4785761999665,3947.680863699992,right,0,2.331882300088182,None,None,,,,,,,,,,,,12_L2,001,2025-04-28_10h31.30.505,LangExperimentstress,2024.2.4,61.67197658889819,2025-04-28 10h31.46.806236 -0400,
sounds/24d_mirar.wav,CVC,Stressed,Mismatch,past,num_2,0.0,0.2,0.71,0.8119545789930551,0.9389863642939812,0.9746780743634248,101,40,41,42,43,44,0,0.51,0.611954578993055,0.738986364293981,0.774678074363425,24d_mirar.wav,,d,,31,31,0,,,,,None,24,left,0,2.0393694000085816,None,,,,,,,0,31,31,11,3947.7050914999563,,,,,,,,,,,,,,,,,,,,,,,3949.7516885000514,3949.7517729999963,,,,3947.6937020999612,3947.6949165666633,3947.7050914999563,3947.7050914999563,0.00934569991659373,0.021797799970954657,3949.411667700042,3949.747673999984,left,0,2.0393694000085816,None,None,,,,,,,,,,,,12_L2,001,2025-04-28_10h31.30.505,LangExperimentstress,2024.2.4,61.67197658889819,2025-04-28 10h31.46.806236 -0400,
sounds/16a_llevar.wav,CVC,Stressed,Match,present,num_1,0.0,0.2,0.929084516317274,0.964936524692279,1.08,1.131864014418682,101,10,11,12,13,14,0,0.729084516317274,0.764936524692279,0.88,0.931864014418682,16a_llevar.wav,,a,,32,32,0,,,,,None,16,right,0,2.192516800016165,None,,,,,,,0,32,32,21,3949.769128600019,,,,,,,,,,,,,,,,,,,,,,,3951.9694672999904,3951.9695550999604,,,,3949.758334400016,3949.7618542666937,3949.769128600019,3949.769128600019,0.00658419996034354,0.01872309995815158,3951.6784793999977,3951.964999699965,right,0,2.192516800016165,None,None,,,,,,,,,,,,12_L2,001,2025-04-28_10h31.30.505,LangExperimentstress,2024.2.4,61.67197658889819,2025-04-28 10h31.46.806236 -0400,
sounds/12a_matar.wav,CVC,Stressed,Match,present,num_1,0.0,0.2,0.8400000000000001,0.96,1.17307472511574,1.186647497106481,101,10,11,12,13,14,0,0.64,0.76,0.97307472511574,0.986647497106481,12a_matar.wav,,a,,33,33,0,,,,,None,12,right,0,2.6274234999436885,None,,,,,,,0,33,33,25,3951.988602000056,,,,,,,,,,,,,,,,,,,,,,,3954.6337717999704,3954.6338770999573,,,,3951.9772106000455,3951.9786369667313,3951.988602000056,3951.988602000056,0.007775099948048592,0.019962099962867796,3954.1957447000314,3954.6310590000357,right,0,2.6274234999436885,None,None,,,,,,,,,,,,12_L2,001,2025-04-28_10h31.30.505,LangExperimentstress,2024.2.4,61.67197658889819,2025-04-28 10h31.46.806236 -0400,
sounds/23a_tomar.wav,CVC,Stressed,Match,present,num_1,0.0,0.2,0.9453179615162032,0.95,1.08,1.158644495081018,101,10,11,12,13,14,0,0.745317961516203,0.75,0.88,0.958644495081018,23a_tomar.wav,,a,,34,34,0,,,,,None,23,right,0,2.382957100053318,None,,,,,,,0,34,34,39,3954.64921459998,,,,,,,,,,,,,,,,,,,,,,,3957.0521004999755,3957.052190699964,,,,3954.639101100038,3954.64523196669,3954.64921459998,3954.64921459998,0.005228399997577071,0.016294299974106252,3956.5618739000056,3957.0479765000055,right,0,2.382957100053318,None,None,,,,,,,,,,,,12_L2,001,2025-04-28_10h31.30.505,LangExperimentstress,2024.2.4,61.67197658889819,2025-04-28 10h31.46.806236 -0400,
sounds/39b_manchar.wav,CVC,Unstressed,Mismatch,present,num_1,0.0,0.2,0.81,0.91203755787037,1.140584317129629,1.2139708912037,101,20,21,22,23,24,0,0.61,0.71203755787037,0.940584317129629,1.0139708912037,39b_manchar.wav,,b,,35,35,0,,,,,None,39,right,0,2.921603800030425,None,,,,,,,0,35,35,7,3957.0713983000023,,,,,,,,,,,,,,,,,,,,,,,3960.0024203000357,3960.002512200037,,,,3957.0596461000387,3957.0620115666575,3957.0713983000023,3957.0713983000023,0.0075530000030994415,0.02043119992595166,3959.329066400067,3959.998635099968,right,0,2.921603800030425,None,None,,,,,,,,,,,,12_L2,001,2025-04-28_10h31.30.505,LangExperimentstress,2024.2.4,61.67197658889819,2025-04-28 10h31.46.806236 -0400,
sounds/28d_parar.wav,CVC,Stressed,Mismatch,past,num_2,0.0,0.2,0.8458860026041659,0.862313736979166,1.018194683159722,1.032797113715277,101,40,41,42,43,44,0,0.645886002604166,0.662313736979166,0.818194683159722,0.832797113715277,28d_parar.wav,,d,,36,36,0,,,,,None,28,left,0,2.5413086999906227,None,,,,,,,0,36,36,18,3960.019831100013,,,,,,,,,,,,,,,,,,,,,,,3962.5691874000477,3962.569277100032,,,,3960.008658900042,3960.0126641666907,3960.019831100013,3960.019831100013,0.006170800072140992,0.018490900052711368,3961.9455817000708,3962.564799600048,left,0,2.5413086999906227,None,None,,,,,,,,,,,,12_L2,001,2025-04-28_10h31.30.505,LangExperimentstress,2024.2.4,61.67197658889819,2025-04-28 10h31.46.806236 -0400,
sounds/07c_tumbar.wav,CVC,Unstressed,Match,past,num_2,0.0,0.2,0.9084024930273432,0.9247360728973012,1.143289673625005,1.154847989033482,101,30,31,32,33,34,0,0.708402493027343,0.724736072897301,0.943289673625005,0.954847989033482,07c_tumbar.wav,,c,,37,37,0,,,,,None,7,left,0,2.698615900008008,None,,,,,,,0,37,37,6,3962.589642500039,,,,,,,,,,,,,,,,,,,,,,,3965.3022899000207,3965.3023812000174,,,,3962.5765411000466,3962.578824966626,3962.589642500039,3962.589642500039,0.007373900036327541,0.02140780002810061,3964.545477000065,3965.297932300018,left,0,2.698615900008008,None,None,,,,,,,,,,,,12_L2,001,2025-04-28_10h31.30.505,LangExperimentstress,2024.2.4,61.67197658889819,2025-04-28 10h31.46.806236 -0400,
sounds/30a_fundar.wav,CVC,Stressed,Match,present,num_1,0.0,0.2,0.77,0.91,1.112685546875,1.12,101,10,11,12,13,14,0,0.57,0.71,0.912685546875,0.92,30a_fundar.wav,,a,,38,38,0,,,,,None,30,right,0,3.0773404999636114,None,,,,,,,0,38,38,36,3965.3228059000103,,,,,,,,,,,,,,,,,,,,,,,3968.41686560004,3968.4169174999697,,,,3965.3096994999796,3965.3119353666593,3965.3228059000103,3965.3228059000103,0.007404600037261844,0.021611500065773726,3967.47904580005,3968.4143331999658,right,0,3.0773404999636114,None,None,,,,,,,,,,,,12_L2,001,2025-04-28_10h31.30.505,LangExperimentstress,2024.2.4,61.67197658889819,2025-04-28 10h31.46.806236 -0400,
sounds/22d_dejar.wav,CVC,Stressed,Mismatch,past,num_2,0.0,0.2,0.8500000000000001,1.02,1.152543366608796,1.28794346788194,101,40,41,42,43,44,0,0.65,0.82,0.952543366608796,1.08794346788194,22d_dejar.wav,,d,,39,39,0,,,,,None,22,left,0,2.29720389994327,None,,,,,,,0,39,39,14,3968.431646400015,,,,,,,,,,,,,,,,,,,,,,,3970.73329080001,3970.733358000056,,,,3968.421442299965,3968.428694366656,3968.431646400015,3968.431646400015,0.004546699929051101,0.015380900003947318,3970.4793187000323,3970.7310083999764,left,0,2.29720389994327,None,None,,,,,,,,,,,,12_L2,001,2025-04-28_10h31.30.505,LangExperimentstress,2024.2.4,61.67197658889819,2025-04-28 10h31.46.806236 -0400,
,,,,,,,,,,,,,,,,,,,,,,,,,,,,,,,,,,,,,,,,,,,,,,,,,,,,,,,,,,,,,,,,,,,,,,,,,,,,,,,,,,,,,,,,,,,,,,,3970.73358920007,3970.745242099976,3970.745242099976,3992.1144028999843,space,21.353361600078642,None,12_L2,001,2025-04-28_10h31.30.505,LangExperimentstress,2024.2.4,61.67197658889819,2025-04-28 10h31.46.806236 -0400,
