sounds,syll,stress_unstress,suffix,present_past,corrAns,trigger_item,trigger_senonset,trigger_verbsonset,trigger_1_F0,trigger_suffix,trigger_2_F0,ID_item,ID_senonset,ID_verbonset,ID_1_F0,ID_suffix,ID_2_F0,ms_senonset,ms_verbonset,ms_1_F0,ms_suffix,ms_2_F0,file_name,sentence,cond,combo,thisN,thisTrialN,thisRepN,key_resp_4.keys,key_resp_4.corr,key_resp_4.rt,key_resp_4.duration,key_resp_5.keys,item_id,key_resp_2.keys,key_resp_2.corr,key_resp_2.rt,key_resp_2.duration,key_resp_5.rt,key_resp_5.duration,practice_trials.thisRepN,practice_trials.thisTrialN,practice_trials.thisN,practice_trials.thisIndex,experimental_trials.thisRepN,experimental_trials.thisTrialN,experimental_trials.thisN,experimental_trials.thisIndex,thisRow.t,notes,instructions.started,instr.started,key_resp.started,instructions.stopped,key_resp.keys,key_resp.rt,key_resp.duration,init_practice.started,init_practice.stopped,test_practice.started,test_sound_2.started,key_resp_4.started,polygon.started,serialPort_item_2.started,serialPort_item_2.stopped,test_sound_2.stopped,test_practice.stopped,practice_trials.key_resp_4.keys,practice_trials.key_resp_4.corr,practice_trials.key_resp_4.rt,practice_trials.key_resp_4.duration,takeabreak.started,takeabreak.stopped,practice_trials.key_resp_5.keys,init_trials.started,init_trials.stopped,test.started,test_sound.started,key_resp_2.started,polygon_2.started,serialPort_item.started,serialPort_item.stopped,test_sound.stopped,test.stopped,experimental_trials.key_resp_2.keys,experimental_trials.key_resp_2.corr,experimental_trials.key_resp_2.rt,experimental_trials.key_resp_2.duration,experimental_trials.key_resp_5.keys,text_3.started,key_resp_5.started,experimental_trials.key_resp_5.rt,experimental_trials.key_resp_5.duration,Thanks.started,text_2.started,key_resp_thanks.started,Thanks.stopped,key_resp_thanks.keys,key_resp_thanks.rt,key_resp_thanks.duration,participant,session,date,expName,psychopyVersion,frameRate,expStart,
,,,,,,,,,,,,,,,,,,,,,,,,,,,,,,,,,,,,,,,,,,,,,,,,,,,,0.003144499962218106,0.01994549995288253,0.01994549995288253,2897.9587312999647,space,2897.9239627999486,None,,,,,,,,,,,,,,,,,,,,,,,,,,,,,,,,,,,,,,,,,,,,14_L2,001,2025-04-28_14h47.42.052,LangExperimentstress,2024.2.4,59.98336060079658,2025-04-28 14h48.23.735148 -0400,
,,,,,,,,,,,,,,,,,,,,,,,,,,,,,,,,,,,,,,,,,,,,,,,,,,,,,,,,,,,2897.9588027000427,2897.95937409997,,,,,,,,,,,,,,,,,,,,,,,,,,,,,,,,,,,,,,,,,,14_L2,001,2025-04-28_14h47.42.052,LangExperimentstress,2024.2.4,59.98336060079658,2025-04-28 14h48.23.735148 -0400,
sounds/p2b_cortar.wav,CVC,Unstressed,Mismatch,present,num_1,0.0,0.205513,0.8629519999999999,0.984841,1.219715,1.27,101,20,21,22,23,24,0.005513,0.662952,0.784841,1.019715,1.07,p2b_cortar.wav,p2,b,p2b,0,0,0,right,0,4.490422800066881,None,None,,,,,,,,0,0,0,1,,,,,2897.980896800058,,,,,,,,,,,2897.970090699964,2897.9835942332948,2897.980896800058,2897.980896800058,0.010734800016507506,0.0221531999995932,2900.250943299965,2902.4851053999737,right,0,4.490422800066881,None,2902.4878224000568,2902.487867500051,None,,,,,,,,,,,,,,,,,,,,,,,,,,,14_L2,001,2025-04-28_14h47.42.052,LangExperimentstress,2024.2.4,59.98336060079658,2025-04-28 14h48.23.735148 -0400,
sounds/p4d_cortar.wav,CVC,Stressed,Mismatch,past,num_2,0.0,0.205513,0.8629519999999999,0.984841,1.219715,1.27,101,40,41,42,43,44,0.005513,0.662952,0.784841,1.019715,1.07,p4d_cortar.wav,p4,d,p4d,1,1,0,left,0,3.6331802000058815,None,None,,,,,,,,0,1,1,3,,,,,2902.5024391000625,,,,,,,,,,,2902.491741999984,2902.499997566633,2902.5024391000625,2902.5024391000625,0.003895500092767179,0.0153641999932006,2905.0169515999733,2906.1528101000004,left,0,3.6331802000058815,None,2906.1557491000276,2906.1558275000425,None,,,,,,,,,,,,,,,,,,,,,,,,,,,14_L2,001,2025-04-28_14h47.42.052,LangExperimentstress,2024.2.4,59.98336060079658,2025-04-28 14h48.23.735148 -0400,
sounds/p1a_saltar.wav,CVC,Stressed,Match,present,num_1,0.0,0.205513,0.8629519999999999,0.984841,1.219715,1.27,101,10,11,12,13,14,0.005513,0.662952,0.784841,1.019715,1.07,p1a_saltar.wav,p1,a,p1a,2,2,0,right,0,3.7985574000049382,None,None,,,,,,,,0,2,2,0,,,,,2906.1699794000015,,,,,,,,,,,2906.1603552000597,2906.1671299667255,2906.1699794000015,2906.1699794000015,0.004536299966275692,0.015048099914565682,2908.41723380005,2909.986314699985,right,0,3.7985574000049382,None,2909.9905961999903,2909.9906850999687,None,,,,,,,,,,,,,,,,,,,,,,,,,,,14_L2,001,2025-04-28_14h47.42.052,LangExperimentstress,2024.2.4,59.98336060079658,2025-04-28 14h48.23.735148 -0400,
sounds/p3c_saltar.wav,CVC,Unstressed,Match,past,num_2,0.0,0.205513,0.8629519999999999,0.984841,1.219715,1.27,101,30,31,32,33,34,0.005513,0.662952,0.784841,1.019715,1.07,p3c_saltar.wav,p3,c,p3c,3,3,0,left,0,4.345262099988759,None,None,,,,,,,,0,3,3,2,,,,,2910.0061081000604,,,,,,,,,,,2909.995660400018,2910.000629666673,2910.0061081000604,2910.0061081000604,0.004974899929948151,0.01624129991978407,2912.0838362999493,2914.3536177000497,left,0,4.345262099988759,None,2914.357131900033,2914.3572254000464,None,,,,,,,,,,,,,,,,,,,,,,,,,,,14_L2,001,2025-04-28_14h47.42.052,LangExperimentstress,2024.2.4,59.98336060079658,2025-04-28 14h48.23.735148 -0400,
,,,,,,,,,,,,,,,,,,,,,,,,,,,,,,,,,,,,,,,,,,,,,,,,,,,,2914.357457099948,2914.3674301999854,2914.3674301999854,3015.9719517000485,space,101.59244939999189,None,,,,,,,,,,,,,,,,,,,,,,,,,,,,,,,,,,,,,,,,,,,,14_L2,001,2025-04-28_14h47.42.052,LangExperimentstress,2024.2.4,59.98336060079658,2025-04-28 14h48.23.735148 -0400,
,,,,,,,,,,,,,,,,,,,,,,,,,,,,,,,,,,,,,,,,,,,,,,,,,,,,,,,,,,,,,,,,,,,,,,,,,,,,3015.97204579995,3015.973004700034,,,,,,,,,,,,,,,,,,,,,,,,,14_L2,001,2025-04-28_14h47.42.052,LangExperimentstress,2024.2.4,59.98336060079658,2025-04-28 14h48.23.735148 -0400,
sounds/35b_secar.wav,CVC,Unstressed,Mismatch,present,num_1,0.0,0.2,0.8990044921875,1.025708658854166,1.179689416956018,1.20652606336805,101,20,21,22,23,24,0,0.6990044921875,0.825708658854166,0.979689416956018,1.00652606336805,35b_secar.wav,,b,,0,0,0,,,,,None,35,right,0,5.111872300039977,None,,,,,,,0,0,0,5,3016.0000713999616,,,,,,,,,,,,,,,,,,,,,,,3021.1264947999734,3021.1265891999938,,,,3015.989287100034,3016.0027245333267,3016.0000713999616,3016.0000713999616,0.016276200069114566,0.02766020002309233,3018.1532952999696,3021.122457099962,right,0,5.111872300039977,None,None,,,,,,,,,,,,14_L2,001,2025-04-28_14h47.42.052,LangExperimentstress,2024.2.4,59.98336060079658,2025-04-28 14h48.23.735148 -0400,
sounds/05a_fumar.wav,CVC,Stressed,Match,present,num_1,0.0,0.2,1.15,1.36712555700231,1.48,1.56308830295138,101,10,11,12,13,14,0,0.95,1.16712555700231,1.28,1.36308830295138,05a_fumar.wav,,a,,1,1,0,,,,,None,5,right,0,4.305493399966508,None,,,,,,,0,1,1,38,3021.143051699968,,,,,,,,,,,,,,,,,,,,,,,3025.4599220999517,3025.4600001999643,,,,3021.1324033000274,3021.1364817666513,3021.143051699968,3021.143051699968,0.005837400094605982,0.01735850004479289,3023.5028529999545,3025.4559472999536,right,0,4.305493399966508,None,None,,,,,,,,,,,,14_L2,001,2025-04-28_14h47.42.052,LangExperimentstress,2024.2.4,59.98336060079658,2025-04-28 14h48.23.735148 -0400,
sounds/39b_manchar.wav,CVC,Unstressed,Mismatch,present,num_1,0.0,0.2,0.81,0.91203755787037,1.140584317129629,1.2139708912037,101,20,21,22,23,24,0,0.61,0.71203755787037,0.940584317129629,1.0139708912037,39b_manchar.wav,,b,,2,2,0,,,,,None,39,right,0,5.267966000013985,None,,,,,,,0,2,2,7,3025.4758461000165,,,,,,,,,,,,,,,,,,,,,,,3030.760064800037,3030.760152700008,,,,3025.464448399958,3025.469929566669,3025.4758461000165,3025.4758461000165,0.004462199984118342,0.01682540006004274,3027.71987000003,3030.755983000039,right,0,5.267966000013985,None,None,,,,,,,,,,,,14_L2,001,2025-04-28_14h47.42.052,LangExperimentstress,2024.2.4,59.98336060079658,2025-04-28 14h48.23.735148 -0400,
sounds/07c_tumbar.wav,CVC,Unstressed,Match,past,num_2,0.0,0.2,0.9084024930273432,0.9247360728973012,1.143289673625005,1.154847989033482,101,30,31,32,33,34,0,0.708402493027343,0.724736072897301,0.943289673625005,0.954847989033482,07c_tumbar.wav,,c,,3,3,0,,,,,None,7,left,0,4.807515599997714,None,,,,,,,0,3,3,6,3030.7767603000393,,,,,,,,,,,,,,,,,,,,,,,3035.593086699955,3035.5931696000043,,,,3030.76488110004,3030.7701608666143,3030.7767603000393,3030.7767603000393,0.004733200068585575,0.0176803000504151,3032.719941999996,3035.590201199986,left,0,4.807515599997714,None,None,,,,,,,,,,,,14_L2,001,2025-04-28_14h47.42.052,LangExperimentstress,2024.2.4,59.98336060079658,2025-04-28 14h48.23.735148 -0400,
sounds/21a_mezclar.wav,CVC,Stressed,Match,present,num_1,0.0,0.2,0.78,0.9121902777777772,1.20214212962962,1.27,101,10,11,12,13,14,0,0.58,0.712190277777777,1.00214212962962,1.07,21a_mezclar.wav,,a,,4,4,0,,,,,None,21,right,0,2.382623100071214,None,,,,,,,0,4,4,27,3035.6089407999534,,,,,,,,,,,,,,,,,,,,,,,3038.005880599958,3038.005926199956,,,,3035.597631199984,3035.604207666653,3035.6089407999534,3035.6089407999534,0.004467399907298386,0.016667499905452132,3037.620326400036,3038.003916800022,right,0,2.382623100071214,None,None,,,,,,,,,,,,14_L2,001,2025-04-28_14h47.42.052,LangExperimentstress,2024.2.4,59.98336060079658,2025-04-28 14h48.23.735148 -0400,
sounds/32d_pulsar.wav,CVC,Stressed,Mismatch,past,num_2,0.0,0.2,0.796440212673611,0.8294641710069439,0.99,1.097783832465277,101,40,41,42,43,44,0,0.596440212673611,0.629464171006944,0.79,0.897783832465277,32d_pulsar.wav,,d,,5,5,0,,,,,None,32,left,0,4.411109399981797,None,,,,,,,0,5,5,24,3038.0213864999823,,,,,,,,,,,,,,,,,,,,,,,3042.4442109999945,3042.444298699964,,,,3038.0084832999855,3038.0193509666174,3038.0213864999823,3038.0213864999823,0.0025662999833002687,0.016636500018648803,3039.8363821000094,3042.439776299987,left,0,4.411109399981797,None,None,,,,,,,,,,,,14_L2,001,2025-04-28_14h47.42.052,LangExperimentstress,2024.2.4,59.98336060079658,2025-04-28 14h48.23.735148 -0400,
sounds/26a_bajar.wav,CVC,Stressed,Match,present,num_1,0.0,0.2,0.77,0.8999999999999999,1.03,1.171181705729166,101,10,11,12,13,14,0,0.57,0.7,0.83,0.971181705729166,26a_bajar.wav,,a,,6,6,0,,,,,None,26,right,0,3.2670442000962794,None,,,,,,,0,6,6,13,3042.461254499969,,,,,,,,,,,,,,,,,,,,,,,3045.7434087999864,3045.7435054000234,,,,3042.449469199986,3042.4538898666547,3042.461254499969,3042.461254499969,0.00520319992210716,0.01786509994417429,3044.5370803000405,3045.739470200031,right,0,3.2670442000962794,None,None,,,,,,,,,,,,14_L2,001,2025-04-28_14h47.42.052,LangExperimentstress,2024.2.4,59.98336060079658,2025-04-28 14h48.23.735148 -0400,
sounds/28d_parar.wav,CVC,Stressed,Mismatch,past,num_2,0.0,0.2,0.8458860026041659,0.862313736979166,1.018194683159722,1.032797113715277,101,40,41,42,43,44,0,0.645886002604166,0.662313736979166,0.818194683159722,0.832797113715277,28d_parar.wav,,d,,7,7,0,,,,,None,28,left,0,2.879704000079073,None,,,,,,,0,7,7,18,3045.759733999963,,,,,,,,,,,,,,,,,,,,,,,3048.6603996000485,3048.6604892000323,,,,3045.748336700024,3045.7535075667006,3045.759733999963,3045.759733999963,0.00485080003272742,0.01736589998472482,3047.6868457000237,3048.6561830999563,left,0,2.879704000079073,None,None,,,,,,,,,,,,14_L2,001,2025-04-28_14h47.42.052,LangExperimentstress,2024.2.4,59.98336060079658,2025-04-28 14h48.23.735148 -0400,
sounds/34c_formar.wav,CVC,Unstressed,Match,past,num_2,0.0,0.2,0.876373676215277,0.992687651909722,1.14,1.26319767795138,101,30,31,32,33,34,0,0.676373676215277,0.792687651909722,0.94,1.06319767795138,34c_formar.wav,,c,,8,8,0,,,,,None,34,left,0,2.692227399908006,None,,,,,,,0,8,8,2,3048.6763079999946,,,,,,,,,,,,,,,,,,,,,,,3051.377672099974,3051.377758400049,,,,3048.665483699995,3048.67030796671,3048.6763079999946,3048.6763079999946,0.0050076000625267625,0.016724899993278086,3050.9202609000495,3051.373426700011,left,0,2.692227399908006,None,None,,,,,,,,,,,,14_L2,001,2025-04-28_14h47.42.052,LangExperimentstress,2024.2.4,59.98336060079658,2025-04-28 14h48.23.735148 -0400,
sounds/06d_soplar.wav,CVC,Stressed,Mismatch,past,num_2,0.0,0.2,0.761291666666666,0.8899999999999999,1.102139687590422,1.166665581687644,101,40,41,42,43,44,0,0.561291666666666,0.69,0.902139687590422,0.966665581687644,06d_soplar.wav,,d,,9,9,0,,,,,space,6,left,0,4.454271099995822,None,10.90566960000433,None,,,,,0,9,9,16,3051.3932073999895,,,,,,,,,,,,,,,,,,,,,,,3055.860249600024,3066.789945799974,,,,3051.382604500046,3051.387649566696,3051.3932073999895,3051.3932073999895,0.004848100012168288,0.016286700032651424,3053.2871963999933,3055.856501800008,left,0,4.454271099995822,None,space,3055.870022100047,3055.870022100047,10.90566960000433,None,,,,,,,,14_L2,001,2025-04-28_14h47.42.052,LangExperimentstress,2024.2.4,59.98336060079658,2025-04-28 14h48.23.735148 -0400,
sounds/27c_tirar.wav,CVC,Unstressed,Match,past,num_2,0.0,0.2,0.8119442057291659,0.8307495153356481,0.9885306495949072,0.998621303530092,101,30,31,32,33,34,0,0.611944205729166,0.630749515335648,0.788530649594907,0.798621303530092,27c_tirar.wav,,c,,10,10,0,,,,,None,27,left,0,2.0248109999811277,None,,,,,,,0,10,10,10,3066.8067240000237,,,,,,,,,,,,,,,,,,,,,,,3068.8430971000344,3068.8431699000066,,,,3066.794591099955,3066.8041878666886,3066.8067240000237,3066.8067240000237,0.004630899988114834,0.01785609999205917,3068.803659499972,3068.8400406000437,left,0,2.0248109999811277,None,None,,,,,,,,,,,,14_L2,001,2025-04-28_14h47.42.052,LangExperimentstress,2024.2.4,59.98336060079658,2025-04-28 14h48.23.735148 -0400,
sounds/30a_fundar.wav,CVC,Stressed,Match,present,num_1,0.0,0.2,0.77,0.91,1.112685546875,1.12,101,10,11,12,13,14,0,0.57,0.71,0.912685546875,0.92,30a_fundar.wav,,a,,11,11,0,,,,,None,30,right,0,3.7636057999916375,None,,,,,,,0,11,11,36,3068.859561900026,,,,,,,,,,,,,,,,,,,,,,,3072.6441838999745,3072.6442706000526,,,,3068.8479577000253,3068.8541586666292,3068.859561900026,3068.859561900026,0.004811399965547025,0.017551700002513826,3071.0211950000376,3072.640088199987,right,0,3.7636057999916375,None,None,,,,,,,,,,,,14_L2,001,2025-04-28_14h47.42.052,LangExperimentstress,2024.2.4,59.98336060079658,2025-04-28 14h48.23.735148 -0400,
sounds/24d_mirar.wav,CVC,Stressed,Mismatch,past,num_2,0.0,0.2,0.71,0.8119545789930551,0.9389863642939812,0.9746780743634248,101,40,41,42,43,44,0,0.51,0.611954578993055,0.738986364293981,0.774678074363425,24d_mirar.wav,,d,,12,12,0,,,,,None,24,left,0,2.0205834000371397,None,,,,,,,0,12,12,11,3072.6595283000497,,,,,,,,,,,,,,,,,,,,,,,3074.6934113999596,3074.693495100015,,,,3072.6489701999817,3072.6540361666744,3072.6595283000497,3072.6595283000497,0.004704899969510734,0.01616300002206117,3074.3707757999655,3074.6900278000394,left,0,2.0205834000371397,None,None,,,,,,,,,,,,14_L2,001,2025-04-28_14h47.42.052,LangExperimentstress,2024.2.4,59.98336060079658,2025-04-28 14h48.23.735148 -0400,
sounds/16a_llevar.wav,CVC,Stressed,Match,present,num_1,0.0,0.2,0.929084516317274,0.964936524692279,1.08,1.131864014418682,101,10,11,12,13,14,0,0.729084516317274,0.764936524692279,0.88,0.931864014418682,16a_llevar.wav,,a,,13,13,0,,,,,None,16,right,0,2.1236724000191316,None,,,,,,,0,13,13,21,3074.7083274000324,,,,,,,,,,,,,,,,,,,,,,,3076.8441374000395,3076.8442158000544,,,,3074.6977351000533,3074.703984666678,3074.7083274000324,3074.7083274000324,0.0042486999882385135,0.015745599986985326,3076.6040102000115,3076.840204500011,right,0,2.1236724000191316,None,None,,,,,,,,,,,,14_L2,001,2025-04-28_14h47.42.052,LangExperimentstress,2024.2.4,59.98336060079658,2025-04-28 14h48.23.735148 -0400,
sounds/37b_pasar.wav,CVC,Unstressed,Mismatch,present,num_1,0.0,0.2,1.033132486979166,1.052087565104166,1.159499674479166,1.27702115885416,101,20,21,22,23,24,0,0.833132486979166,0.852087565104166,0.959499674479166,1.07702115885416,37b_pasar.wav,,b,,14,14,0,,,,,None,37,right,0,2.6528829999733716,None,,,,,,,0,14,14,23,3076.8588858000003,,,,,,,,,,,,,,,,,,,,,,,3079.52732610004,3079.5273988000117,,,,3076.848548299982,3076.8542457667104,3076.8588858000003,3076.8588858000003,0.004337400081567466,0.015561499982140958,3078.970688499976,3079.5232800999656,right,0,2.6528829999733716,None,None,,,,,,,,,,,,14_L2,001,2025-04-28_14h47.42.052,LangExperimentstress,2024.2.4,59.98336060079658,2025-04-28 14h48.23.735148 -0400,
sounds/02c_buscar.wav,CVC,Unstressed,Match,past,num_2,0.0,0.2,0.8700000000000001,1.07,1.26,1.40703946035879,101,30,31,32,33,34,0,0.67,0.87,1.06,1.20703946035879,02c_buscar.wav,,c,,15,15,0,,,,,None,2,left,0,2.0649038000265136,None,,,,,,,0,15,15,34,3079.5423474999843,,,,,,,,,,,,,,,,,,,,,,,3081.6409217000473,3081.6410087000113,,,,3079.531979399966,3079.5374386666267,3079.5423474999843,3079.5423474999843,0.004600999993272126,0.015892699942924082,,3081.623152300017,left,0,2.0649038000265136,None,None,,,,,,,,,,,,14_L2,001,2025-04-28_14h47.42.052,LangExperimentstress,2024.2.4,59.98336060079658,2025-04-28 14h48.23.735148 -0400,
sounds/01d_salvar.wav,CVC,Stressed,Mismatch,past,num_2,0.0,0.2,0.8500000000000001,0.996069502314814,1.23,1.29,101,40,41,42,43,44,0,0.65,0.796069502314814,1.03,1.09,01d_salvar.wav,,d,,16,16,0,,,,,None,1,left,0,2.1666659000329673,None,,,,,,,0,16,16,37,3081.6562809000025,,,,,,,,,,,,,,,,,,,,,,,3083.844001300051,3083.844092100044,,,,3081.6452982999617,3081.6541106333107,3081.6562809000025,3081.6562809000025,0.00427010003477335,0.01600450009573251,3083.721271699993,3083.8399002000224,left,0,2.1666659000329673,None,None,,,,,,,,,,,,14_L2,001,2025-04-28_14h47.42.052,LangExperimentstress,2024.2.4,59.98336060079658,2025-04-28 14h48.23.735148 -0400,
sounds/25b_ganar.wav,CVC,Unstressed,Mismatch,present,num_1,0.0,0.2,1.152097938368055,1.15990068760488,1.28904165650454,1.37272500435153,101,20,21,22,23,24,0,0.952097938368055,0.95990068760488,1.08904165650454,1.17272500435153,25b_ganar.wav,,b,,17,17,0,,,,,None,25,right,0,2.4736529000801966,None,,,,,,,0,17,17,8,3083.8619934000308,,,,,,,,,,,,,,,,,,,,,,,3086.3447611000156,3086.3448437000625,,,,3083.8497827999527,3083.8541805666796,3083.8619934000308,3083.8619934000308,0.0057073000352829695,0.01906399999279529,3086.2042528999737,3086.3405864000088,right,0,2.4736529000801966,None,None,,,,,,,,,,,,14_L2,001,2025-04-28_14h47.42.052,LangExperimentstress,2024.2.4,59.98336060079658,2025-04-28 14h48.23.735148 -0400,
sounds/19a_marcar.wav,CVC,Stressed,Match,present,num_1,0.0,0.2,0.8400000000000001,0.97,1.245718359375,1.273519140625,101,10,11,12,13,14,0,0.64,0.77,1.045718359375,1.073519140625,19a_marcar.wav,,a,,18,18,0,,,,,None,19,right,0,2.246629000059329,None,,,,,,,0,18,18,19,3086.36105019995,,,,,,,,,,,,,,,,,,,,,,,3088.626932300045,3088.627011399949,,,,3086.3490214999765,3086.3547483666957,3086.36105019995,3086.36105019995,0.0041884999955073,0.01724419998936355,3088.271172799985,3088.623381900019,right,0,2.246629000059329,None,None,,,,,,,,,,,,14_L2,001,2025-04-28_14h47.42.052,LangExperimentstress,2024.2.4,59.98336060079658,2025-04-28 14h48.23.735148 -0400,
sounds/22d_dejar.wav,CVC,Stressed,Mismatch,past,num_2,0.0,0.2,0.8500000000000001,1.02,1.152543366608796,1.28794346788194,101,40,41,42,43,44,0,0.65,0.82,0.952543366608796,1.08794346788194,22d_dejar.wav,,d,,19,19,0,,,,,space,22,left,0,1.9650748000713065,None,8.449339000042528,None,,,,,0,19,19,14,3088.6428213999607,,,,,,,,,,,,,,,,,,,,,,,3090.6402907000156,3099.1073089999845,,,,3088.631502300035,3088.6378233666223,3088.6428213999607,3088.6428213999607,0.004507299978286028,0.017058799974620342,,3090.6235360000283,left,0,1.9650748000713065,None,space,3090.6465266000014,3090.6465266000014,8.449339000042528,None,,,,,,,,14_L2,001,2025-04-28_14h47.42.052,LangExperimentstress,2024.2.4,59.98336060079658,2025-04-28 14h48.23.735148 -0400,
sounds/13c_montar.wav,CVC,Unstressed,Match,past,num_2,0.0,0.2,0.8800000000000001,0.98,1.24543012152777,1.2594709201388798,101,30,31,32,33,34,0,0.68,0.78,1.04543012152777,1.05947092013888,13c_montar.wav,,c,,20,20,0,,,,,None,13,left,0,2.522762899985537,None,,,,,,,0,20,20,33,3099.1251694000093,,,,,,,,,,,,,,,,,,,,,,,3101.661295500002,3101.6613809999544,,,,3099.1128962000366,3099.121233766728,3099.1251694000093,3099.1251694000093,0.005564699997194111,0.019013000070117414,3101.4214141999837,3101.6571776999626,left,0,2.522762899985537,None,None,,,,,,,,,,,,14_L2,001,2025-04-28_14h47.42.052,LangExperimentstress,2024.2.4,59.98336060079658,2025-04-28 14h48.23.735148 -0400,
sounds/03b_limpiar.wav,CVC,Unstressed,Mismatch,present,num_1,0.0,0.2,0.8500000000000001,0.932367621527777,1.26878515625,1.35808463541666,101,20,21,22,23,24,0,0.65,0.732367621527777,1.06878515625,1.15808463541666,03b_limpiar.wav,,b,,21,21,0,,,,,None,3,right,0,2.0980109000811353,None,,,,,,,0,21,21,4,3101.6777202000376,,,,,,,,,,,,,,,,,,,,,,,3103.7979633000214,3103.798052500002,,,,3101.6664385000477,3101.6713362666237,3101.6777202000376,3101.6777202000376,0.005066900048404932,0.017182899988256395,,3103.7947805000003,right,0,2.0980109000811353,None,None,,,,,,,,,,,,14_L2,001,2025-04-28_14h47.42.052,LangExperimentstress,2024.2.4,59.98336060079658,2025-04-28 14h48.23.735148 -0400,
sounds/04c_plantar.wav,CVC,Unstressed,Match,past,num_2,0.0,0.2,0.862877574458911,0.9343518689653568,1.20493812332404,1.21897569287037,101,30,31,32,33,34,0,0.662877574458911,0.734351868965357,1.00493812332404,1.01897569287037,04c_plantar.wav,,c,,22,22,0,,,,,None,4,left,0,1.6801754999905825,None,,,,,,,0,22,22,9,3103.8151931000175,,,,,,,,,,,,,,,,,,,,,,,3105.5312498999992,3105.53135309997,,,,3103.8036436999682,3103.804885966649,3103.8151931000175,3103.8151931000175,0.005667600082233548,0.018154500052332878,,3105.5071899000322,left,0,1.6801754999905825,None,None,,,,,,,,,,,,14_L2,001,2025-04-28_14h47.42.052,LangExperimentstress,2024.2.4,59.98336060079658,2025-04-28 14h48.23.735148 -0400,
sounds/20c_cubrir.wav,CVC,Unstressed,Match,past,num_2,0.0,0.2,0.980138641742621,1.01,1.192436112212021,1.28412143493692,101,30,31,32,33,34,0,0.780138641742621,0.81,0.992436112212021,1.08412143493692,20c_cubrir.wav,,c,,23,23,0,,,,,None,20,left,0,3.6682425000471994,None,,,,,,,0,23,23,31,3105.5478848000057,,,,,,,,,,,,,,,,,,,,,,,3109.227877600002,3109.227964699967,,,,3105.5364426999586,3105.537923133358,3105.5478848000057,3105.5478848000057,0.005106700002215803,0.017652299953624606,3107.6716037000297,3109.224307999946,left,0,3.6682425000471994,None,None,,,,,,,,,,,,14_L2,001,2025-04-28_14h47.42.052,LangExperimentstress,2024.2.4,59.98336060079658,2025-04-28 14h48.23.735148 -0400,
sounds/08d_filtrar.wav,CVC,Stressed,Mismatch,past,num_2,0.0,0.2,0.7526856695589441,0.87808115762362,1.118901843962886,1.172598812485867,101,40,41,42,43,44,0,0.552685669558944,0.67808115762362,0.918901843962886,0.972598812485867,08d_filtrar.wav,,d,,24,24,0,,,,,None,8,right,0,4.17204880004283,None,,,,,,,0,24,24,15,3109.2437644000165,,,,,,,,,,,,,,,,,,,,,,,3113.4281342000468,3113.428267100011,,,,3109.2326813000254,3109.2383474666317,3109.2437644000165,3109.2437644000165,0.00472640001680702,0.016716399928554893,3111.0047469000565,3113.424142700038,right,0,4.17204880004283,None,None,,,,,,,,,,,,14_L2,001,2025-04-28_14h47.42.052,LangExperimentstress,2024.2.4,59.98336060079658,2025-04-28 14h48.23.735148 -0400,
sounds/33b_culpar.wav,CVC,Unstressed,Mismatch,present,num_1,0.0,0.2,0.8606178431336959,0.869103678029107,1.109891641372144,1.131540467434179,101,20,21,22,23,24,0,0.660617843133696,0.669103678029107,0.909891641372144,0.931540467434179,33b_culpar.wav,,b,,25,25,0,,,,,None,33,right,0,2.1970217999769375,None,,,,,,,0,25,25,35,3113.442877899972,,,,,,,,,,,,,,,,,,,,,,,3115.6615171000594,3115.6616079000523,,,,3113.4331308000255,3113.4383088666405,3113.442877899972,3113.442877899972,0.004861800000071526,0.01546210004016757,3115.6219286000123,3115.6573229000205,right,0,2.1970217999769375,None,None,,,,,,,,,,,,14_L2,001,2025-04-28_14h47.42.052,LangExperimentstress,2024.2.4,59.98336060079658,2025-04-28 14h48.23.735148 -0400,
sounds/17d_tragar.wav,CVC,Stressed,Mismatch,past,num_2,0.0,0.2,1.070609360532407,1.117973654513888,1.30915316840277,1.35458539534397,101,40,41,42,43,44,0,0.870609360532407,0.917973654513888,1.10915316840277,1.15458539534397,17d_tragar.wav,,d,,26,26,0,,,,,None,17,left,0,6.521833000006154,None,,,,,,,0,26,26,26,3115.6770314000314,,,,,,,,,,,,,,,,,,,,,,,3122.2113419000525,3122.2114280000096,,,,3115.6670867999783,3115.671547166716,3115.6770314000314,3115.6770314000314,0.0054833999602124095,0.016273100045509636,3117.9884161000373,3122.207828399958,left,0,6.521833000006154,None,None,,,,,,,,,,,,14_L2,001,2025-04-28_14h47.42.052,LangExperimentstress,2024.2.4,59.98336060079658,2025-04-28 14h48.23.735148 -0400,
sounds/31d_tocar.wav,CVC,Stressed,Mismatch,past,num_2,0.0,0.2,0.8493931756807,0.8650112062639721,1.006860547391531,1.049162047334928,101,40,41,42,43,44,0,0.6493931756807,0.665011206263972,0.806860547391531,0.849162047334928,31d_tocar.wav,,d,,27,27,0,,,,,None,31,left,0,2.0832365000387654,None,,,,,,,0,27,27,30,3122.227954000002,,,,,,,,,,,,,,,,,,,,,,,3124.328796799993,3124.3289069000166,,,,3122.2164675999666,3122.221865166623,3122.227954000002,3122.227954000002,0.00504479999653995,0.017434600042179227,3124.1219984999625,3124.324598200037,left,0,2.0832365000387654,None,None,,,,,,,,,,,,14_L2,001,2025-04-28_14h47.42.052,LangExperimentstress,2024.2.4,59.98336060079658,2025-04-28 14h48.23.735148 -0400,
sounds/10d_vender.wav,CVC,Stressed,Mismatch,past,num_2,0.0,0.2,0.832830209056713,0.8775468199411529,1.109501330306288,1.158928471023364,101,40,41,42,43,44,0,0.632830209056713,0.677546819941153,0.909501330306288,0.958928471023364,10d_vender.wav,,d,,28,28,0,,,,,None,10,left,0,2.4084921999601647,None,,,,,,,0,28,28,12,3124.343911199947,,,,,,,,,,,,,,,,,,,,,,,3126.761524099973,3126.7616115000565,,,,3124.3333722000243,3124.3387172666303,3124.343911199947,3124.343911199947,0.0044590000761672854,0.01589200005400926,3126.255497899954,3126.758138000034,left,0,2.4084921999601647,None,None,,,,,,,,,,,,14_L2,001,2025-04-28_14h47.42.052,LangExperimentstress,2024.2.4,59.98336060079658,2025-04-28 14h48.23.735148 -0400,
sounds/11a_pegar.wav,CVC,Stressed,Match,present,num_1,0.0,0.2,0.8182808977343741,0.831294515585661,0.98,1.012063288108519,101,10,11,12,13,14,0,0.618280897734374,0.631294515585661,0.78,0.812063288108519,11a_pegar.wav,,a,,29,29,0,,,,,space,11,right,0,2.134309400105849,None,7.868794300011359,None,,,,,0,29,29,3,3126.7778905000305,,,,,,,,,,,,,,,,,,,,,,,3128.9295534000266,3136.824448899948,,,,3126.7664081000257,3126.772408366615,3126.7778905000305,3126.7778905000305,0.0048093999503180385,0.017181799979880452,3128.721942199976,3128.9252216999885,right,0,2.134309400105849,None,space,3128.938413899974,3128.938413899974,7.868794300011359,None,,,,,,,,14_L2,001,2025-04-28_14h47.42.052,LangExperimentstress,2024.2.4,59.98336060079658,2025-04-28 14h48.23.735148 -0400,
sounds/14b_borrar.wav,CVC,Unstressed,Mismatch,present,num_1,0.0,0.2,0.72,0.770187630208333,0.851961241319444,0.964399956597222,101,20,21,22,23,24,0,0.52,0.570187630208333,0.651961241319444,0.764399956597222,14b_borrar.wav,,b,,30,30,0,,,,,None,14,right,0,2.0214844999136403,None,,,,,,,0,30,30,20,3136.841850399971,,,,,,,,,,,,,,,,,,,,,,,3138.8778638000367,3138.8779380000196,,,,3136.8294314000523,3136.8386676667183,3136.841850399971,3136.841850399971,0.004967599990777671,0.018592400010675192,3138.805819400004,3138.874755099998,right,0,2.0214844999136403,None,None,,,,,,,,,,,,14_L2,001,2025-04-28_14h47.42.052,LangExperimentstress,2024.2.4,59.98336060079658,2025-04-28 14h48.23.735148 -0400,
sounds/23a_tomar.wav,CVC,Stressed,Match,present,num_1,0.0,0.2,0.9453179615162032,0.95,1.08,1.158644495081018,101,10,11,12,13,14,0,0.745317961516203,0.75,0.88,0.958644495081018,23a_tomar.wav,,a,,31,31,0,,,,,None,23,right,0,1.9399064000463113,None,,,,,,,0,31,31,39,3138.8919591000304,,,,,,,,,,,,,,,,,,,,,,,3140.8458186000353,3140.845915499958,,,,3138.881936599966,3138.888993266683,3138.8919591000304,3138.8919591000304,0.00400179997086525,0.014885099953971803,3140.805750400061,3140.8415659000166,right,0,1.9399064000463113,None,None,,,,,,,,,,,,14_L2,001,2025-04-28_14h47.42.052,LangExperimentstress,2024.2.4,59.98336060079658,2025-04-28 14h48.23.735148 -0400,
sounds/36c_bordar.wav,CVC,Unstressed,Match,past,num_2,0.0,0.2,1.0,1.078468243634259,1.3288624855324,1.3414992042824,101,30,31,32,33,34,0,0.8,0.878468243634259,1.1288624855324,1.1414992042824,36c_bordar.wav,,c,,32,32,0,,,,,None,36,left,0,2.9395580999553204,None,,,,,,,0,32,32,1,3140.860208100057,,,,,,,,,,,,,,,,,,,,,,,3143.8125904999906,3143.812670700019,,,,3140.8507567000343,3140.855698766715,3140.860208100057,3140.860208100057,0.004848000011406839,0.015025299973785877,3143.139120799955,3143.8088475000113,left,0,2.9395580999553204,None,None,,,,,,,,,,,,14_L2,001,2025-04-28_14h47.42.052,LangExperimentstress,2024.2.4,59.98336060079658,2025-04-28 14h48.23.735148 -0400,
sounds/18b_cumplir.wav,CVC,Unstressed,Mismatch,present,num_1,0.0,0.2,1.2408027271412,1.25568597366898,1.46256310040509,1.54144430700231,101,20,21,22,23,24,0,1.0408027271412,1.05568597366898,1.26256310040509,1.34144430700231,18b_cumplir.wav,,b,,33,33,0,,,,,None,18,right,0,2.324468099977821,None,,,,,,,0,33,33,29,3143.827424900024,,,,,,,,,,,,,,,,,,,,,,,3146.1622640000423,3146.162352000014,,,,3143.8172683999874,3143.822863266633,3143.827424900024,3143.827424900024,0.004606199916452169,0.015575299970805645,3146.005409799982,3146.1580987999914,right,0,2.324468099977821,None,None,,,,,,,,,,,,14_L2,001,2025-04-28_14h47.42.052,LangExperimentstress,2024.2.4,59.98336060079658,2025-04-28 14h48.23.735148 -0400,
sounds/40c_gastar.wav,CVC,Unstressed,Match,past,num_2,0.0,0.2,0.8300000000000001,0.8400000000000001,1.163436328125,1.183149609375,101,30,31,32,33,34,0,0.63,0.64,0.963436328125,0.983149609375,40c_gastar.wav,,c,,34,34,0,,,,,None,40,left,0,2.9900569999590516,None,,,,,,,0,34,34,0,3146.1777207000414,,,,,,,,,,,,,,,,,,,,,,,3149.178309699986,3149.1783909000224,,,,3146.1671006999677,3146.1722530666198,3146.1777207000414,3146.1777207000414,0.00475600000936538,0.016225400031544268,3148.305846399977,3149.1747558000498,left,0,2.9900569999590516,None,None,,,,,,,,,,,,14_L2,001,2025-04-28_14h47.42.052,LangExperimentstress,2024.2.4,59.98336060079658,2025-04-28 14h48.23.735148 -0400,
sounds/38b_pagar.wav,CVC,Unstressed,Mismatch,present,num_1,0.0,0.2,1.166737304687499,1.185271158854166,1.29521061197916,1.4055712890624898,101,20,21,22,23,24,0,0.966737304687499,0.985271158854166,1.09521061197916,1.20557128906249,38b_pagar.wav,,b,,35,35,0,,,,,None,38,right,0,2.8303725000005215,None,,,,,,,0,35,35,17,3149.193469300051,,,,,,,,,,,,,,,,,,,,,,,3152.044237300055,3152.0443178999703,,,,3149.183334799949,3149.1888460666564,3149.193469300051,3149.193469300051,0.0049591000424697995,0.015956000075675547,3151.4566466000397,3152.0413862999994,right,0,2.8303725000005215,None,None,,,,,,,,,,,,14_L2,001,2025-04-28_14h47.42.052,LangExperimentstress,2024.2.4,59.98336060079658,2025-04-28 14h48.23.735148 -0400,
sounds/09c_cargar.wav,CVC,Unstressed,Match,past,num_2,0.0,0.2,0.81286744068287,0.8382251229745361,1.032634020543981,1.090594437210648,101,30,31,32,33,34,0,0.61286744068287,0.638225122974536,0.832634020543981,0.890594437210648,09c_cargar.wav,,c,,36,36,0,,,,,None,9,left,0,2.621323399944231,None,,,,,,,0,36,36,28,3152.058380899951,,,,,,,,,,,,,,,,,,,,,,,3154.6959628999466,3154.696049500024,,,,3152.048626999953,3152.0558921666275,3152.058380899951,3152.058380899951,0.004330000025220215,0.014929399942047894,3154.005918700015,3154.691774399951,left,0,2.621323399944231,None,None,,,,,,,,,,,,14_L2,001,2025-04-28_14h47.42.052,LangExperimentstress,2024.2.4,59.98336060079658,2025-04-28 14h48.23.735148 -0400,
sounds/29a_pesar.wav,CVC,Stressed,Match,present,num_1,0.0,0.2,0.91328417532552,0.925531286730473,1.03,1.150619522602117,101,10,11,12,13,14,0,0.71328417532552,0.725531286730473,0.83,0.950619522602117,29a_pesar.wav,,a,,37,37,0,,,,,None,29,right,0,2.023340000072494,None,,,,,,,0,37,37,32,3154.7128740999615,,,,,,,,,,,,,,,,,,,,,,,3156.7461643000133,3156.7462551000062,,,,3154.701137600001,3154.7059589666937,3154.7128740999615,3154.7128740999615,0.005106600001454353,0.017974199960008264,3156.622086300049,3156.7419708999805,right,0,2.023340000072494,None,None,,,,,,,,,,,,14_L2,001,2025-04-28_14h47.42.052,LangExperimentstress,2024.2.4,59.98336060079658,2025-04-28 14h48.23.735148 -0400,
sounds/15b_partir.wav,CVC,Unstressed,Mismatch,present,num_1,0.0,0.2,0.826865400752314,0.842973894883327,1.1042888772729471,1.120815958498066,101,20,21,22,23,24,0,0.626865400752314,0.642973894883327,0.904288877272947,0.920815958498066,15b_partir.wav,,b,,38,38,0,,,,,None,15,left,0,5.524715199950151,None,,,,,,,0,38,38,22,3156.7623498999747,,,,,,,,,,,,,,,,,,,,,,,3162.292654299992,3162.2927475000033,,,,3156.751456100028,3156.756168766708,3156.7623498999747,3156.7623498999747,0.005221200059168041,0.01700870005879551,3158.822462399956,3162.289876600029,left,0,5.524715199950151,None,None,,,,,,,,,,,,14_L2,001,2025-04-28_14h47.42.052,LangExperimentstress,2024.2.4,59.98336060079658,2025-04-28 14h48.23.735148 -0400,
sounds/12a_matar.wav,CVC,Stressed,Match,present,num_1,0.0,0.2,0.8400000000000001,0.96,1.17307472511574,1.186647497106481,101,10,11,12,13,14,0,0.64,0.76,0.97307472511574,0.986647497106481,12a_matar.wav,,a,,39,39,0,,,,,None,12,right,0,3.0270836000563577,None,,,,,,,0,39,39,25,3162.3086417999584,,,,,,,,,,,,,,,,,,,,,,,3165.346320700017,3165.3464132000227,,,,3162.29803429998,3162.305353166714,3162.3086417999584,3162.3086417999584,0.005298800067976117,0.016947500058449805,3164.506056800019,3165.3423787000356,right,0,3.0270836000563577,None,None,,,,,,,,,,,,14_L2,001,2025-04-28_14h47.42.052,LangExperimentstress,2024.2.4,59.98336060079658,2025-04-28 14h48.23.735148 -0400,
,,,,,,,,,,,,,,,,,,,,,,,,,,,,,,,,,,,,,,,,,,,,,,,,,,,,,,,,,,,,,,,,,,,,,,,,,,,,,,,,,,,,,,,,,,,,,,,3165.3466497999616,3165.3560466000345,3165.3560466000345,4071.5620069999713,space,906.2037621999625,None,14_L2,001,2025-04-28_14h47.42.052,LangExperimentstress,2024.2.4,59.98336060079658,2025-04-28 14h48.23.735148 -0400,
