sounds,syll,stress_unstress,suffix,present_past,corrAns,trigger_item,trigger_senonset,trigger_verbsonset,trigger_1_F0,trigger_suffix,trigger_2_F0,ID_item,ID_senonset,ID_verbonset,ID_1_F0,ID_suffix,ID_2_F0,ms_senonset,ms_verbonset,ms_1_F0,ms_suffix,ms_2_F0,file_name,sentence,cond,combo,thisN,thisTrialN,thisRepN,key_resp_4.keys,key_resp_4.corr,key_resp_4.rt,key_resp_4.duration,key_resp_5.keys,item_id,key_resp_2.keys,key_resp_2.corr,key_resp_2.rt,key_resp_2.duration,key_resp_5.rt,key_resp_5.duration,practice_trials.thisRepN,practice_trials.thisTrialN,practice_trials.thisN,practice_trials.thisIndex,experimental_trials.thisRepN,experimental_trials.thisTrialN,experimental_trials.thisN,experimental_trials.thisIndex,thisRow.t,notes,instructions.started,instr.started,key_resp.started,instructions.stopped,key_resp.keys,key_resp.rt,key_resp.duration,init_practice.started,init_practice.stopped,test_practice.started,test_sound_2.started,key_resp_4.started,polygon.started,serialPort_item_2.started,serialPort_item_2.stopped,test_sound_2.stopped,test_practice.stopped,practice_trials.key_resp_4.keys,practice_trials.key_resp_4.corr,practice_trials.key_resp_4.rt,practice_trials.key_resp_4.duration,takeabreak.started,takeabreak.stopped,practice_trials.key_resp_5.keys,init_trials.started,init_trials.stopped,test.started,test_sound.started,key_resp_2.started,polygon_2.started,serialPort_item.started,serialPort_item.stopped,test_sound.stopped,test.stopped,experimental_trials.key_resp_2.keys,experimental_trials.key_resp_2.corr,experimental_trials.key_resp_2.rt,experimental_trials.key_resp_2.duration,experimental_trials.key_resp_5.keys,text_3.started,key_resp_5.started,experimental_trials.key_resp_5.rt,experimental_trials.key_resp_5.duration,Thanks.started,text_2.started,key_resp_thanks.started,Thanks.stopped,key_resp_thanks.keys,key_resp_thanks.rt,key_resp_thanks.duration,participant,session,date,expName,psychopyVersion,frameRate,expStart,
,,,,,,,,,,,,,,,,,,,,,,,,,,,,,,,,,,,,,,,,,,,,,,,,,,,,0.002793999999994412,0.014400099999988925,0.014400099999988925,4827.0934093,space,4827.0540703,None,,,,,,,,,,,,,,,,,,,,,,,,,,,,,,,,,,,,,,,,,,,,16_L2,001,2025-04-29_12h57.27.260,LangExperimentstress,2024.2.4,60.0053524774575,2025-04-29 12h57.43.857195 -0400,
,,,,,,,,,,,,,,,,,,,,,,,,,,,,,,,,,,,,,,,,,,,,,,,,,,,,,,,,,,,4827.0934998,4827.0940412,,,,,,,,,,,,,,,,,,,,,,,,,,,,,,,,,,,,,,,,,,16_L2,001,2025-04-29_12h57.27.260,LangExperimentstress,2024.2.4,60.0053524774575,2025-04-29 12h57.43.857195 -0400,
sounds/p2b_cortar.wav,CVC,Unstressed,Mismatch,present,num_1,0.0,0.205513,0.8629519999999999,0.984841,1.219715,1.27,101,20,21,22,23,24,0.005513,0.662952,0.784841,1.019715,1.07,p2b_cortar.wav,p2,b,p2b,0,0,0,left,0,4.1958002999999735,None,None,,,,,,,,0,0,0,1,,,,,4827.1209368,,,,,,,,,,,4827.1093093,4827.124999533333,4827.1209368,4827.1209368,0.015282399999705376,0.027476999999635154,4829.3831598,4831.319702,left,0,4.1958002999999735,None,4831.3231108,4831.3231878,None,,,,,,,,,,,,,,,,,,,,,,,,,,,16_L2,001,2025-04-29_12h57.27.260,LangExperimentstress,2024.2.4,60.0053524774575,2025-04-29 12h57.43.857195 -0400,
sounds/p1a_saltar.wav,CVC,Stressed,Match,present,num_1,0.0,0.205513,0.8629519999999999,0.984841,1.219715,1.27,101,10,11,12,13,14,0.005513,0.662952,0.784841,1.019715,1.07,p1a_saltar.wav,p1,a,p1a,1,1,0,right,0,2.9911190000002534,None,None,,,,,,,,0,1,1,0,,,,,4831.3412004,,,,,,,,,,,4831.3302139,4831.333483366667,4831.3412004,4831.3412004,0.00704799999948591,0.0190535000001546,4833.5831821,4834.3363499,right,0,2.9911190000002534,None,4834.3404648999995,4834.3405551999995,None,,,,,,,,,,,,,,,,,,,,,,,,,,,16_L2,001,2025-04-29_12h57.27.260,LangExperimentstress,2024.2.4,60.0053524774575,2025-04-29 12h57.43.857195 -0400,
sounds/p4d_cortar.wav,CVC,Stressed,Mismatch,past,num_2,0.0,0.205513,0.8629519999999999,0.984841,1.219715,1.27,101,40,41,42,43,44,0.005513,0.662952,0.784841,1.019715,1.07,p4d_cortar.wav,p4,d,p4d,2,2,0,right,0,2.9152376000001823,None,None,,,,,,,,0,2,2,3,,,,,4834.3609041,,,,,,,,,,,4834.3495147,4834.350254766667,4834.3609041,4834.3609041,0.008980599999631522,0.021386399999755668,4836.8833426,4837.2857225,right,0,2.9152376000001823,None,4837.289372,4837.2894417,None,,,,,,,,,,,,,,,,,,,,,,,,,,,16_L2,001,2025-04-29_12h57.27.260,LangExperimentstress,2024.2.4,60.0053524774575,2025-04-29 12h57.43.857195 -0400,
sounds/p3c_saltar.wav,CVC,Unstressed,Match,past,num_2,0.0,0.205513,0.8629519999999999,0.984841,1.219715,1.27,101,30,31,32,33,34,0.005513,0.662952,0.784841,1.019715,1.07,p3c_saltar.wav,p3,c,p3c,3,3,0,right,0,2.5275173999998515,None,None,,,,,,,,0,3,3,2,,,,,4837.3084732,,,,,,,,,,,4837.2970051,4837.300384766666,4837.3084732,4837.3084732,0.007609499999489344,0.01995199999964825,4839.4001941999995,4839.8523439,right,0,2.5275173999998515,None,4839.8560464,4839.8561414999995,None,,,,,,,,,,,,,,,,,,,,,,,,,,,16_L2,001,2025-04-29_12h57.27.260,LangExperimentstress,2024.2.4,60.0053524774575,2025-04-29 12h57.43.857195 -0400,
,,,,,,,,,,,,,,,,,,,,,,,,,,,,,,,,,,,,,,,,,,,,,,,,,,,,4839.8563751,4839.8668826,4839.8668826,4868.6866817,space,28.80974100000003,None,,,,,,,,,,,,,,,,,,,,,,,,,,,,,,,,,,,,,,,,,,,,16_L2,001,2025-04-29_12h57.27.260,LangExperimentstress,2024.2.4,60.0053524774575,2025-04-29 12h57.43.857195 -0400,
,,,,,,,,,,,,,,,,,,,,,,,,,,,,,,,,,,,,,,,,,,,,,,,,,,,,,,,,,,,,,,,,,,,,,,,,,,,,4868.6867856,4868.6878497,,,,,,,,,,,,,,,,,,,,,,,,,16_L2,001,2025-04-29_12h57.27.260,LangExperimentstress,2024.2.4,60.0053524774575,2025-04-29 12h57.43.857195 -0400,
sounds/34c_formar.wav,CVC,Unstressed,Match,past,num_2,0.0,0.2,0.876373676215277,0.992687651909722,1.14,1.26319767795138,101,30,31,32,33,34,0,0.676373676215277,0.792687651909722,0.94,1.06319767795138,34c_formar.wav,,c,,0,0,0,,,,,None,34,right,0,2.815671100000145,None,,,,,,,0,0,0,2,4868.7246078,,,,,,,,,,,,,,,,,,,,,,,4871.5565065,4871.5565883,,,,4868.7126468999995,4868.717078933333,4868.7246078,4868.7246078,0.024811100000079023,0.03797169999961625,4870.9666283,4871.552369,right,0,2.815671100000145,None,None,,,,,,,,,,,,16_L2,001,2025-04-29_12h57.27.260,LangExperimentstress,2024.2.4,60.0053524774575,2025-04-29 12h57.43.857195 -0400,
sounds/15b_partir.wav,CVC,Unstressed,Mismatch,present,num_1,0.0,0.2,0.826865400752314,0.842973894883327,1.1042888772729471,1.120815958498066,101,20,21,22,23,24,0,0.626865400752314,0.642973894883327,0.904288877272947,0.920815958498066,15b_partir.wav,,b,,1,1,0,,,,,None,15,left,0,4.546584400000029,None,,,,,,,0,1,1,22,4871.5776639999995,,,,,,,,,,,,,,,,,,,,,,,4876.1388341,4876.1389276,,,,4871.5643343,4871.566569866666,4871.5776639999995,4871.5776639999995,0.007783699999890814,0.02224460000070394,4873.6498733,4876.1356899,left,0,4.546584400000029,None,None,,,,,,,,,,,,16_L2,001,2025-04-29_12h57.27.260,LangExperimentstress,2024.2.4,60.0053524774575,2025-04-29 12h57.43.857195 -0400,
sounds/36c_bordar.wav,CVC,Unstressed,Match,past,num_2,0.0,0.2,1.0,1.078468243634259,1.3288624855324,1.3414992042824,101,30,31,32,33,34,0,0.8,0.878468243634259,1.1288624855324,1.1414992042824,36c_bordar.wav,,c,,2,2,0,,,,,None,36,left,0,3.7512980999999854,None,,,,,,,0,2,2,1,4876.1569785,,,,,,,,,,,,,,,,,,,,,,,4879.9233121,4879.9233945,,,,4876.146371,4876.149881266666,4876.1569785,4876.1569785,0.007471100000657316,0.019178700000338722,4878.4331888,4879.9192393,left,0,3.7512980999999854,None,None,,,,,,,,,,,,16_L2,001,2025-04-29_12h57.27.260,LangExperimentstress,2024.2.4,60.0053524774575,2025-04-29 12h57.43.857195 -0400,
sounds/29a_pesar.wav,CVC,Stressed,Match,present,num_1,0.0,0.2,0.91328417532552,0.925531286730473,1.03,1.150619522602117,101,10,11,12,13,14,0,0.71328417532552,0.725531286730473,0.83,0.950619522602117,29a_pesar.wav,,a,,3,3,0,,,,,None,29,right,0,4.198573700000452,None,,,,,,,0,3,3,32,4879.9412409,,,,,,,,,,,,,,,,,,,,,,,4884.1576035,4884.1576995,,,,4879.9298438,4879.933366266667,4879.9412409,4879.9412409,0.006474599999819475,0.019062299999859533,4881.8499317999995,4884.1529035,right,0,4.198573700000452,None,None,,,,,,,,,,,,16_L2,001,2025-04-29_12h57.27.260,LangExperimentstress,2024.2.4,60.0053524774575,2025-04-29 12h57.43.857195 -0400,
sounds/13c_montar.wav,CVC,Unstressed,Match,past,num_2,0.0,0.2,0.8800000000000001,0.98,1.24543012152777,1.2594709201388798,101,30,31,32,33,34,0,0.68,0.78,1.04543012152777,1.05947092013888,13c_montar.wav,,c,,4,4,0,,,,,None,13,left,0,2.835635899999943,None,,,,,,,0,4,4,33,4884.1764526,,,,,,,,,,,,,,,,,,,,,,,4887.0234838,4887.0235735,,,,4884.1659672,4884.166713266666,4884.1764526,4884.1764526,0.008286299999781477,0.019676500000059605,4886.4667794,4887.0193305,left,0,2.835635899999943,None,None,,,,,,,,,,,,16_L2,001,2025-04-29_12h57.27.260,LangExperimentstress,2024.2.4,60.0053524774575,2025-04-29 12h57.43.857195 -0400,
sounds/12a_matar.wav,CVC,Stressed,Match,present,num_1,0.0,0.2,0.8400000000000001,0.96,1.17307472511574,1.186647497106481,101,10,11,12,13,14,0,0.64,0.76,0.97307472511574,0.986647497106481,12a_matar.wav,,a,,5,5,0,,,,,None,12,right,0,2.904663100000107,None,,,,,,,0,5,5,25,4887.0443532,,,,,,,,,,,,,,,,,,,,,,,4889.9563138,4889.9563911,,,,4887.0321317,4887.033402466666,4887.0443532,4887.0443532,0.008642999999210588,0.02179789999991044,4889.2331236,4889.9534447,right,0,2.904663100000107,None,None,,,,,,,,,,,,16_L2,001,2025-04-29_12h57.27.260,LangExperimentstress,2024.2.4,60.0053524774575,2025-04-29 12h57.43.857195 -0400,
sounds/17d_tragar.wav,CVC,Stressed,Mismatch,past,num_2,0.0,0.2,1.070609360532407,1.117973654513888,1.30915316840277,1.35458539534397,101,40,41,42,43,44,0,0.870609360532407,0.917973654513888,1.10915316840277,1.15458539534397,17d_tragar.wav,,d,,6,6,0,,,,,None,17,right,0,4.791599099999985,None,,,,,,,0,6,6,26,4889.9729821,,,,,,,,,,,,,,,,,,,,,,,4894.7742508,4894.7743358,,,,4889.962903,4889.967742866666,4889.9729821,4889.9729821,0.006527900000037334,0.017501700000138953,4892.2833502,4894.7698342,right,0,4.791599099999985,None,None,,,,,,,,,,,,16_L2,001,2025-04-29_12h57.27.260,LangExperimentstress,2024.2.4,60.0053524774575,2025-04-29 12h57.43.857195 -0400,
sounds/35b_secar.wav,CVC,Unstressed,Mismatch,present,num_1,0.0,0.2,0.8990044921875,1.025708658854166,1.179689416956018,1.20652606336805,101,20,21,22,23,24,0,0.6990044921875,0.825708658854166,0.979689416956018,1.00652606336805,35b_secar.wav,,b,,7,7,0,,,,,None,35,left,0,4.8646533000001,None,,,,,,,0,7,7,5,4894.7953979,,,,,,,,,,,,,,,,,,,,,,,4899.6729497999995,4899.67304,,,,4894.7828887999995,4894.783976566667,4894.7953979,4894.7953979,0.008582200000091689,0.022390899999663816,4896.9501282,4899.6692549,left,0,4.8646533000001,None,None,,,,,,,,,,,,16_L2,001,2025-04-29_12h57.27.260,LangExperimentstress,2024.2.4,60.0053524774575,2025-04-29 12h57.43.857195 -0400,
sounds/39b_manchar.wav,CVC,Unstressed,Mismatch,present,num_1,0.0,0.2,0.81,0.91203755787037,1.140584317129629,1.2139708912037,101,20,21,22,23,24,0,0.61,0.71203755787037,0.940584317129629,1.0139708912037,39b_manchar.wav,,b,,8,8,0,,,,,None,39,right,0,5.1189916000002995,None,,,,,,,0,8,8,7,4899.6928142,,,,,,,,,,,,,,,,,,,,,,,4904.8235345,4904.823627,,,,4899.6812466,4899.683314466666,4899.6928142,4899.6928142,0.008286299999781477,0.020798399999875983,4901.9500001999995,4904.8194023999995,right,0,5.1189916000002995,None,None,,,,,,,,,,,,16_L2,001,2025-04-29_12h57.27.260,LangExperimentstress,2024.2.4,60.0053524774575,2025-04-29 12h57.43.857195 -0400,
sounds/27c_tirar.wav,CVC,Unstressed,Match,past,num_2,0.0,0.2,0.8119442057291659,0.8307495153356481,0.9885306495949072,0.998621303530092,101,30,31,32,33,34,0,0.611944205729166,0.630749515335648,0.788530649594907,0.798621303530092,27c_tirar.wav,,c,,9,9,0,,,,,space,27,left,0,3.457849399999759,None,22.71128779999981,None,,,,,0,9,9,10,4904.8432475,,,,,,,,,,,,,,,,,,,,,,,4908.3231121,4931.0523599,,,,4904.8320204,4904.833334366666,4904.8432475,4904.8432475,0.008490199999869219,0.020665500000177417,4906.850514,4908.3190973,left,0,3.457849399999759,None,space,4908.3334161,4908.3334161,22.71128779999981,None,,,,,,,,16_L2,001,2025-04-29_12h57.27.260,LangExperimentstress,2024.2.4,60.0053524774575,2025-04-29 12h57.43.857195 -0400,
sounds/26a_bajar.wav,CVC,Stressed,Match,present,num_1,0.0,0.2,0.77,0.8999999999999999,1.03,1.171181705729166,101,10,11,12,13,14,0,0.57,0.7,0.83,0.971181705729166,26a_bajar.wav,,a,,10,10,0,,,,,None,26,left,0,2.565777299999354,None,,,,,,,0,10,10,13,4931.0717300999995,,,,,,,,,,,,,,,,,,,,,,,4933.6567755999995,4933.656864,,,,4931.0593973,4931.066499866666,4931.0717300999995,4931.0717300999995,0.007008499999756168,0.020374900000206253,4933.1502795999995,4933.6522999,left,0,2.565777299999354,None,None,,,,,,,,,,,,16_L2,001,2025-04-29_12h57.27.260,LangExperimentstress,2024.2.4,60.0053524774575,2025-04-29 12h57.43.857195 -0400,
sounds/33b_culpar.wav,CVC,Unstressed,Mismatch,present,num_1,0.0,0.2,0.8606178431336959,0.869103678029107,1.109891641372144,1.131540467434179,101,20,21,22,23,24,0,0.660617843133696,0.669103678029107,0.909891641372144,0.931540467434179,33b_culpar.wav,,b,,11,11,0,,,,,None,33,right,0,2.033300300000519,None,,,,,,,0,11,11,35,4933.675079,,,,,,,,,,,,,,,,,,,,,,,4935.7372182,4935.7373179999995,,,,4933.6641043,4933.666525266666,4933.675079,4933.675079,0.007274300000062794,0.019127699999444303,,4935.7193615999995,right,0,2.033300300000519,None,None,,,,,,,,,,,,16_L2,001,2025-04-29_12h57.27.260,LangExperimentstress,2024.2.4,60.0053524774575,2025-04-29 12h57.43.857195 -0400,
sounds/28d_parar.wav,CVC,Stressed,Mismatch,past,num_2,0.0,0.2,0.8458860026041659,0.862313736979166,1.018194683159722,1.032797113715277,101,40,41,42,43,44,0,0.645886002604166,0.662313736979166,0.818194683159722,0.832797113715277,28d_parar.wav,,d,,12,12,0,,,,,None,28,right,0,4.887752500000715,None,,,,,,,0,12,12,18,4935.7571075,,,,,,,,,,,,,,,,,,,,,,,4940.6560493,4940.6561268,,,,4935.7444516,4935.750127833333,4935.7571075,4935.7571075,0.007176499999332009,0.020945999999639753,4937.6834094999995,4940.652223,right,0,4.887752500000715,None,None,,,,,,,,,,,,16_L2,001,2025-04-29_12h57.27.260,LangExperimentstress,2024.2.4,60.0053524774575,2025-04-29 12h57.43.857195 -0400,
sounds/11a_pegar.wav,CVC,Stressed,Match,present,num_1,0.0,0.2,0.8182808977343741,0.831294515585661,0.98,1.012063288108519,101,10,11,12,13,14,0,0.618280897734374,0.631294515585661,0.78,0.812063288108519,11a_pegar.wav,,a,,13,13,0,,,,,None,11,right,0,4.042234300000018,None,,,,,,,0,13,13,3,4940.6742728,,,,,,,,,,,,,,,,,,,,,,,4944.7234685,4944.7235594,,,,4940.6630838,4940.666524566666,4940.6742728,4940.6742728,0.006984000000556989,0.01919090000046708,4942.6167798,4944.7194905999995,right,0,4.042234300000018,None,None,,,,,,,,,,,,16_L2,001,2025-04-29_12h57.27.260,LangExperimentstress,2024.2.4,60.0053524774575,2025-04-29 12h57.43.857195 -0400,
sounds/10d_vender.wav,CVC,Stressed,Mismatch,past,num_2,0.0,0.2,0.832830209056713,0.8775468199411529,1.109501330306288,1.158928471023364,101,40,41,42,43,44,0,0.632830209056713,0.677546819941153,0.909501330306288,0.958928471023364,10d_vender.wav,,d,,14,14,0,,,,,None,10,left,0,2.3418789000006655,None,,,,,,,0,14,14,12,4944.7434201,,,,,,,,,,,,,,,,,,,,,,,4947.1069107,4947.1069941999995,,,,4944.7308113,4944.733334266666,4944.7434201,4944.7434201,0.007301699999516131,0.021068999999442894,4946.6499174,4947.1025139,left,0,2.3418789000006655,None,None,,,,,,,,,,,,16_L2,001,2025-04-29_12h57.27.260,LangExperimentstress,2024.2.4,60.0053524774575,2025-04-29 12h57.43.857195 -0400,
sounds/07c_tumbar.wav,CVC,Unstressed,Match,past,num_2,0.0,0.2,0.9084024930273432,0.9247360728973012,1.143289673625005,1.154847989033482,101,30,31,32,33,34,0,0.708402493027343,0.724736072897301,0.943289673625005,0.954847989033482,07c_tumbar.wav,,c,,15,15,0,,,,,None,7,right,0,3.8491260999999213,None,,,,,,,0,15,15,6,4947.1228621,,,,,,,,,,,,,,,,,,,,,,,4950.9899477,4950.9900277,,,,4947.1132038,4947.116700466667,4947.1228621,4947.1228621,0.006240699999580102,0.01692559999992227,4949.0666503,4950.9858555,right,0,3.8491260999999213,None,None,,,,,,,,,,,,16_L2,001,2025-04-29_12h57.27.260,LangExperimentstress,2024.2.4,60.0053524774575,2025-04-29 12h57.43.857195 -0400,
sounds/22d_dejar.wav,CVC,Stressed,Mismatch,past,num_2,0.0,0.2,0.8500000000000001,1.02,1.152543366608796,1.28794346788194,101,40,41,42,43,44,0,0.65,0.82,0.952543366608796,1.08794346788194,22d_dejar.wav,,d,,16,16,0,,,,,None,22,left,0,2.172458099999858,None,,,,,,,0,16,16,14,4951.0087178,,,,,,,,,,,,,,,,,,,,,,,4953.1898853,4953.1899686,,,,4950.997208,4951.000068166666,4951.0087178,4951.0087178,0.007222900000670052,0.01967490000060934,4953.0498953,4953.1860823,left,0,2.172458099999858,None,None,,,,,,,,,,,,16_L2,001,2025-04-29_12h57.27.260,LangExperimentstress,2024.2.4,60.0053524774575,2025-04-29 12h57.43.857195 -0400,
sounds/20c_cubrir.wav,CVC,Unstressed,Match,past,num_2,0.0,0.2,0.980138641742621,1.01,1.192436112212021,1.28412143493692,101,30,31,32,33,34,0,0.780138641742621,0.81,0.992436112212021,1.08412143493692,20c_cubrir.wav,,c,,17,17,0,,,,,None,20,left,0,2.7536466999999902,None,,,,,,,0,17,17,31,4953.2106578,,,,,,,,,,,,,,,,,,,,,,,4955.9738414,4955.9739302,,,,4953.1991724,4953.200377666666,4953.2106578,4953.2106578,0.009292300000197429,0.021843700000317767,4955.3500508,4955.9695081,left,0,2.7536466999999902,None,None,,,,,,,,,,,,16_L2,001,2025-04-29_12h57.27.260,LangExperimentstress,2024.2.4,60.0053524774575,2025-04-29 12h57.43.857195 -0400,
sounds/37b_pasar.wav,CVC,Unstressed,Mismatch,present,num_1,0.0,0.2,1.033132486979166,1.052087565104166,1.159499674479166,1.27702115885416,101,20,21,22,23,24,0,0.833132486979166,0.852087565104166,0.959499674479166,1.07702115885416,37b_pasar.wav,,b,,18,18,0,,,,,None,37,right,0,2.5883392000005188,None,,,,,,,0,18,18,23,4955.992834,,,,,,,,,,,,,,,,,,,,,,,4958.5899884,4958.5900771,,,,4955.9812119,4955.983628066666,4955.992834,4955.992834,0.007363900000200374,0.019865500000378233,4958.0997879,4958.5860561,right,0,2.5883392000005188,None,None,,,,,,,,,,,,16_L2,001,2025-04-29_12h57.27.260,LangExperimentstress,2024.2.4,60.0053524774575,2025-04-29 12h57.43.857195 -0400,
sounds/24d_mirar.wav,CVC,Stressed,Mismatch,past,num_2,0.0,0.2,0.71,0.8119545789930551,0.9389863642939812,0.9746780743634248,101,40,41,42,43,44,0,0.51,0.611954578993055,0.738986364293981,0.774678074363425,24d_mirar.wav,,d,,19,19,0,,,,,space,24,left,0,2.436405399999785,None,18.290316100000382,None,,,,,0,19,19,11,4958.6074398,,,,,,,,,,,,,,,,,,,,,,,4961.0566721,4979.3697751,,,,4958.5969724,4958.600234566667,4958.6074398,4958.6074398,0.006915400000252703,0.01830710000012914,4960.3166315,4961.0525449,left,0,2.436405399999785,None,space,4961.0667093,4961.0667093,18.290316100000382,None,,,,,,,,16_L2,001,2025-04-29_12h57.27.260,LangExperimentstress,2024.2.4,60.0053524774575,2025-04-29 12h57.43.857195 -0400,
sounds/16a_llevar.wav,CVC,Stressed,Match,present,num_1,0.0,0.2,0.929084516317274,0.964936524692279,1.08,1.131864014418682,101,10,11,12,13,14,0,0.729084516317274,0.764936524692279,0.88,0.931864014418682,16a_llevar.wav,,a,,20,20,0,,,,,None,16,right,0,3.2810898999996425,None,,,,,,,0,20,20,21,4979.387501,,,,,,,,,,,,,,,,,,,,,,,4982.6897414,4982.6898297,,,,4979.3767169,4979.384103766666,4979.387501,4979.387501,0.006937099999959173,0.018865699999878416,4981.3000016,4982.6857299,right,0,3.2810898999996425,None,None,,,,,,,,,,,,16_L2,001,2025-04-29_12h57.27.260,LangExperimentstress,2024.2.4,60.0053524774575,2025-04-29 12h57.43.857195 -0400,
sounds/03b_limpiar.wav,CVC,Unstressed,Mismatch,present,num_1,0.0,0.2,0.8500000000000001,0.932367621527777,1.26878515625,1.35808463541666,101,20,21,22,23,24,0,0.65,0.732367621527777,1.06878515625,1.15808463541666,03b_limpiar.wav,,b,,21,21,0,,,,,None,3,right,0,2.3824193999998897,None,,,,,,,0,21,21,4,4982.7100836,,,,,,,,,,,,,,,,,,,,,,,4985.1067786,4985.1068620999995,,,,4982.6983842,4982.700062766667,4982.7100836,4982.7100836,0.008660800000143354,0.021424100000331237,4984.8499609,4985.1025306,right,0,2.3824193999998897,None,None,,,,,,,,,,,,16_L2,001,2025-04-29_12h57.27.260,LangExperimentstress,2024.2.4,60.0053524774575,2025-04-29 12h57.43.857195 -0400,
sounds/09c_cargar.wav,CVC,Unstressed,Match,past,num_2,0.0,0.2,0.81286744068287,0.8382251229745361,1.032634020543981,1.090594437210648,101,30,31,32,33,34,0,0.61286744068287,0.638225122974536,0.832634020543981,0.890594437210648,09c_cargar.wav,,c,,22,22,0,,,,,None,9,left,0,2.708759199999804,None,,,,,,,0,22,22,28,4985.1268246,,,,,,,,,,,,,,,,,,,,,,,4987.8548149,4987.8548868,,,,4985.1154633999995,4985.1167700666665,4985.1268246,4985.1268246,0.008747400000174821,0.021103799999764306,4987.0666184,4987.8522163,left,0,2.708759199999804,None,None,,,,,,,,,,,,16_L2,001,2025-04-29_12h57.27.260,LangExperimentstress,2024.2.4,60.0053524774575,2025-04-29 12h57.43.857195 -0400,
sounds/21a_mezclar.wav,CVC,Stressed,Match,present,num_1,0.0,0.2,0.78,0.9121902777777772,1.20214212962962,1.27,101,10,11,12,13,14,0,0.58,0.712190277777777,1.00214212962962,1.07,21a_mezclar.wav,,a,,23,23,0,,,,,None,21,right,0,3.3260223999996015,None,,,,,,,0,23,23,27,4987.871325,,,,,,,,,,,,,,,,,,,,,,,4991.2070963999995,4991.2071763,,,,4987.8605064,4987.866745166666,4987.871325,4987.871325,0.00563019999935932,0.017271599999730824,4989.9005113,4991.203093,right,0,3.3260223999996015,None,None,,,,,,,,,,,,16_L2,001,2025-04-29_12h57.27.260,LangExperimentstress,2024.2.4,60.0053524774575,2025-04-29 12h57.43.857195 -0400,
sounds/02c_buscar.wav,CVC,Unstressed,Match,past,num_2,0.0,0.2,0.8700000000000001,1.07,1.26,1.40703946035879,101,30,31,32,33,34,0,0.67,0.87,1.06,1.20703946035879,02c_buscar.wav,,c,,24,24,0,,,,,None,2,left,0,2.1290484000001015,None,,,,,,,0,24,24,34,4991.2268159,,,,,,,,,,,,,,,,,,,,,,,4993.3732653,4993.3733569999995,,,,4991.215022,4991.217034666666,4991.2268159,4991.2268159,0.007890699999734352,0.02067669999996724,4993.3667728,4993.3690834,left,0,2.1290484000001015,None,None,,,,,,,,,,,,16_L2,001,2025-04-29_12h57.27.260,LangExperimentstress,2024.2.4,60.0053524774575,2025-04-29 12h57.43.857195 -0400,
sounds/19a_marcar.wav,CVC,Stressed,Match,present,num_1,0.0,0.2,0.8400000000000001,0.97,1.245718359375,1.273519140625,101,10,11,12,13,14,0,0.64,0.77,1.045718359375,1.073519140625,19a_marcar.wav,,a,,25,25,0,,,,,None,19,left,0,3.405610300000262,None,,,,,,,0,25,25,19,4993.3903582,,,,,,,,,,,,,,,,,,,,,,,4996.8065652,4996.8067561,,,,4993.379112,4993.3834394666665,4993.3903582,4993.3903582,0.005765099999734957,0.01812789999985398,4995.2997515,4996.802378,left,0,3.405610300000262,None,None,,,,,,,,,,,,16_L2,001,2025-04-29_12h57.27.260,LangExperimentstress,2024.2.4,60.0053524774575,2025-04-29 12h57.43.857195 -0400,
sounds/14b_borrar.wav,CVC,Unstressed,Mismatch,present,num_1,0.0,0.2,0.72,0.770187630208333,0.851961241319444,0.964399956597222,101,20,21,22,23,24,0,0.52,0.570187630208333,0.651961241319444,0.764399956597222,14b_borrar.wav,,b,,26,26,0,,,,,None,14,left,0,5.2736408999999185,None,,,,,,,0,26,26,20,4996.8268996,,,,,,,,,,,,,,,,,,,,,,,5002.1065726,5002.1066519999995,,,,4996.8146295,4996.816717966666,4996.8268996,4996.8268996,0.007975900000019465,0.021240600000055565,4998.783291,5002.1025708,left,0,5.2736408999999185,None,None,,,,,,,,,,,,16_L2,001,2025-04-29_12h57.27.260,LangExperimentstress,2024.2.4,60.0053524774575,2025-04-29 12h57.43.857195 -0400,
sounds/06d_soplar.wav,CVC,Stressed,Mismatch,past,num_2,0.0,0.2,0.761291666666666,0.8899999999999999,1.102139687590422,1.166665581687644,101,40,41,42,43,44,0,0.561291666666666,0.69,0.902139687590422,0.966665581687644,06d_soplar.wav,,d,,27,27,0,,,,,None,6,left,0,3.6558051000001797,None,,,,,,,0,27,27,16,5002.1243435999995,,,,,,,,,,,,,,,,,,,,,,,5005.7897604,5005.7898483,,,,5002.1132915,5002.116701666666,5002.1243435999995,5002.1243435999995,0.006668299999546434,0.018828899999789428,5004.0166725,5005.7859257,left,0,3.6558051000001797,None,None,,,,,,,,,,,,16_L2,001,2025-04-29_12h57.27.260,LangExperimentstress,2024.2.4,60.0053524774575,2025-04-29 12h57.43.857195 -0400,
sounds/01d_salvar.wav,CVC,Stressed,Mismatch,past,num_2,0.0,0.2,0.8500000000000001,0.996069502314814,1.23,1.29,101,40,41,42,43,44,0,0.65,0.796069502314814,1.03,1.09,01d_salvar.wav,,d,,28,28,0,,,,,None,1,left,0,2.993749100000059,None,,,,,,,0,28,28,37,5005.8103288,,,,,,,,,,,,,,,,,,,,,,,5008.8222112,5008.8222851,,,,5005.7969861,5005.800054266666,5005.8103288,5005.8103288,0.007155799999964074,0.021436899999571324,5007.8833517,5008.8184647,left,0,2.993749100000059,None,None,,,,,,,,,,,,16_L2,001,2025-04-29_12h57.27.260,LangExperimentstress,2024.2.4,60.0053524774575,2025-04-29 12h57.43.857195 -0400,
sounds/25b_ganar.wav,CVC,Unstressed,Mismatch,present,num_1,0.0,0.2,1.152097938368055,1.15990068760488,1.28904165650454,1.37272500435153,101,20,21,22,23,24,0,0.952097938368055,0.95990068760488,1.08904165650454,1.17272500435153,25b_ganar.wav,,b,,29,29,0,,,,,space,25,right,0,2.141171199999917,None,9.407061400000202,None,,,,,0,29,29,8,5008.8400755,,,,,,,,,,,,,,,,,,,,,,,5011.0080381,5020.435595,,,,5008.8289803,5008.833037666666,5008.8400755,5008.8400755,0.006713099999615224,0.018666299999495095,,5010.9863261,right,0,2.141171199999917,None,space,5011.013046,5011.013046,9.407061400000202,None,,,,,,,,16_L2,001,2025-04-29_12h57.27.260,LangExperimentstress,2024.2.4,60.0053524774575,2025-04-29 12h57.43.857195 -0400,
sounds/32d_pulsar.wav,CVC,Stressed,Mismatch,past,num_2,0.0,0.2,0.796440212673611,0.8294641710069439,0.99,1.097783832465277,101,40,41,42,43,44,0,0.596440212673611,0.629464171006944,0.79,0.897783832465277,32d_pulsar.wav,,d,,30,30,0,,,,,None,32,left,0,2.1909597000003487,None,,,,,,,0,30,30,24,5020.4529923,,,,,,,,,,,,,,,,,,,,,,,5022.6564364,5022.6565197,,,,5020.4421796,5020.449942366667,5020.4529923,5020.4529923,0.006567499999619031,0.018519799999921815,5022.2668105,5022.652488,left,0,2.1909597000003487,None,None,,,,,,,,,,,,16_L2,001,2025-04-29_12h57.27.260,LangExperimentstress,2024.2.4,60.0053524774575,2025-04-29 12h57.43.857195 -0400,
sounds/30a_fundar.wav,CVC,Stressed,Match,present,num_1,0.0,0.2,0.77,0.91,1.112685546875,1.12,101,10,11,12,13,14,0,0.57,0.71,0.912685546875,0.92,30a_fundar.wav,,a,,31,31,0,,,,,None,30,left,0,2.480879699999605,None,,,,,,,0,31,31,36,5022.6757276,,,,,,,,,,,,,,,,,,,,,,,5025.1733991,5025.1734809,,,,5022.6642187,5022.6668113666665,5022.6757276,5022.6757276,0.007774299999255163,0.020281799999793293,5024.8333523,5025.1692293999995,left,0,2.480879699999605,None,None,,,,,,,,,,,,16_L2,001,2025-04-29_12h57.27.260,LangExperimentstress,2024.2.4,60.0053524774575,2025-04-29 12h57.43.857195 -0400,
sounds/31d_tocar.wav,CVC,Stressed,Mismatch,past,num_2,0.0,0.2,0.8493931756807,0.8650112062639721,1.006860547391531,1.049162047334928,101,40,41,42,43,44,0,0.6493931756807,0.665011206263972,0.806860547391531,0.849162047334928,31d_tocar.wav,,d,,32,32,0,,,,,None,31,left,0,2.269931599999836,None,,,,,,,0,32,32,30,5025.1908829,,,,,,,,,,,,,,,,,,,,,,,5027.4736482,5027.4737366,,,,5025.1799071,5025.1833627666665,5025.1908829,5025.1908829,0.006437000000005355,0.01835990000017773,5027.0998637,5027.4694844,left,0,2.269931599999836,None,None,,,,,,,,,,,,16_L2,001,2025-04-29_12h57.27.260,LangExperimentstress,2024.2.4,60.0053524774575,2025-04-29 12h57.43.857195 -0400,
sounds/08d_filtrar.wav,CVC,Stressed,Mismatch,past,num_2,0.0,0.2,0.7526856695589441,0.87808115762362,1.118901843962886,1.172598812485867,101,40,41,42,43,44,0,0.552685669558944,0.67808115762362,0.918901843962886,0.972598812485867,08d_filtrar.wav,,d,,33,33,0,,,,,None,8,right,0,4.863194800000201,None,,,,,,,0,33,33,15,5027.4925866,,,,,,,,,,,,,,,,,,,,,,,5032.3735649,5032.3736812,,,,5027.4808277,5027.483576166666,5027.4925866,5027.4925866,0.00714109999989887,0.019763899999816203,5029.2496487,5032.3696156,right,0,4.863194800000201,None,None,,,,,,,,,,,,16_L2,001,2025-04-29_12h57.27.260,LangExperimentstress,2024.2.4,60.0053524774575,2025-04-29 12h57.43.857195 -0400,
sounds/05a_fumar.wav,CVC,Stressed,Match,present,num_1,0.0,0.2,1.15,1.36712555700231,1.48,1.56308830295138,101,10,11,12,13,14,0,0.95,1.16712555700231,1.28,1.36308830295138,05a_fumar.wav,,a,,34,34,0,,,,,None,5,right,0,3.981303699999444,None,,,,,,,0,34,34,38,5032.3923605,,,,,,,,,,,,,,,,,,,,,,,5036.3904728,5036.3905609,,,,5032.380708,5032.383420466666,5032.3923605,5032.3923605,0.007042199999887089,0.01967640000020765,5034.7500167,5036.3861433,right,0,3.981303699999444,None,None,,,,,,,,,,,,16_L2,001,2025-04-29_12h57.27.260,LangExperimentstress,2024.2.4,60.0053524774575,2025-04-29 12h57.43.857195 -0400,
sounds/23a_tomar.wav,CVC,Stressed,Match,present,num_1,0.0,0.2,0.9453179615162032,0.95,1.08,1.158644495081018,101,10,11,12,13,14,0,0.745317961516203,0.75,0.88,0.958644495081018,23a_tomar.wav,,a,,35,35,0,,,,,None,23,left,0,1.8272477999998955,None,,,,,,,0,35,35,39,5036.4096574,,,,,,,,,,,,,,,,,,,,,,,5038.2668791999995,5038.2669691,,,,5036.3979159,5036.400121866666,5036.4096574,5036.4096574,0.007460699999683129,0.02018820000012056,,5038.2520603,left,0,1.8272477999998955,None,None,,,,,,,,,,,,16_L2,001,2025-04-29_12h57.27.260,LangExperimentstress,2024.2.4,60.0053524774575,2025-04-29 12h57.43.857195 -0400,
sounds/40c_gastar.wav,CVC,Unstressed,Match,past,num_2,0.0,0.2,0.8300000000000001,0.8400000000000001,1.163436328125,1.183149609375,101,30,31,32,33,34,0,0.63,0.64,0.963436328125,0.983149609375,40c_gastar.wav,,c,,36,36,0,,,,,None,40,left,0,2.9032488999991983,None,,,,,,,0,36,36,0,5038.2858428,,,,,,,,,,,,,,,,,,,,,,,5041.2069144,5041.2069967,,,,5038.2733327,5038.283174233333,5038.2858428,5038.2858428,0.006380599999829428,0.019934599999942293,5040.4001941,5041.2026598,left,0,2.9032488999991983,None,None,,,,,,,,,,,,16_L2,001,2025-04-29_12h57.27.260,LangExperimentstress,2024.2.4,60.0053524774575,2025-04-29 12h57.43.857195 -0400,
sounds/04c_plantar.wav,CVC,Unstressed,Match,past,num_2,0.0,0.2,0.862877574458911,0.9343518689653568,1.20493812332404,1.21897569287037,101,30,31,32,33,34,0,0.662877574458911,0.734351868965357,1.00493812332404,1.01897569287037,04c_plantar.wav,,c,,37,37,0,,,,,None,4,left,0,2.2412193999998635,None,,,,,,,0,37,37,9,5041.2270913,,,,,,,,,,,,,,,,,,,,,,,5043.4901901,5043.490286,,,,5041.2157816,5041.216903766666,5041.2270913,5041.2270913,0.00881799999933719,0.021177099999476923,5043.2835388,5043.4864043,left,0,2.2412193999998635,None,None,,,,,,,,,,,,16_L2,001,2025-04-29_12h57.27.260,LangExperimentstress,2024.2.4,60.0053524774575,2025-04-29 12h57.43.857195 -0400,
sounds/18b_cumplir.wav,CVC,Unstressed,Mismatch,present,num_1,0.0,0.2,1.2408027271412,1.25568597366898,1.46256310040509,1.54144430700231,101,20,21,22,23,24,0,1.0408027271412,1.05568597366898,1.26256310040509,1.34144430700231,18b_cumplir.wav,,b,,38,38,0,,,,,None,18,right,0,2.5169340000002194,None,,,,,,,0,38,38,29,5043.5122332,,,,,,,,,,,,,,,,,,,,,,,5046.040288,5046.0403747,,,,5043.4986481999995,5043.500386866666,5043.5122332,5043.5122332,0.008461299999908078,0.02334400000017922,5045.6999393,5046.0363480999995,right,0,2.5169340000002194,None,None,,,,,,,,,,,,16_L2,001,2025-04-29_12h57.27.260,LangExperimentstress,2024.2.4,60.0053524774575,2025-04-29 12h57.43.857195 -0400,
sounds/38b_pagar.wav,CVC,Unstressed,Mismatch,present,num_1,0.0,0.2,1.166737304687499,1.185271158854166,1.29521061197916,1.4055712890624898,101,20,21,22,23,24,0,0.966737304687499,0.985271158854166,1.09521061197916,1.20557128906249,38b_pagar.wav,,b,,39,39,0,,,,,None,38,right,0,2.7926985000003697,None,,,,,,,0,39,39,17,5046.0597571,,,,,,,,,,,,,,,,,,,,,,,5048.8732486,5048.8733315,,,,5046.047818,5046.050247966667,5046.0597571,5046.0597571,0.007484900000235939,0.02060810000057245,5048.3169343,5048.8692013,right,0,2.7926985000003697,None,None,,,,,,,,,,,,16_L2,001,2025-04-29_12h57.27.260,LangExperimentstress,2024.2.4,60.0053524774575,2025-04-29 12h57.43.857195 -0400,
,,,,,,,,,,,,,,,,,,,,,,,,,,,,,,,,,,,,,,,,,,,,,,,,,,,,,,,,,,,,,,,,,,,,,,,,,,,,,,,,,,,,,,,,,,,,,,,5048.8736266999995,5048.8834091,5048.8834091,5058.3526403999995,space,9.4648901999999,None,16_L2,001,2025-04-29_12h57.27.260,LangExperimentstress,2024.2.4,60.0053524774575,2025-04-29 12h57.43.857195 -0400,
