sounds,syll,stress_unstress,suffix,present_past,corrAns,trigger_item,trigger_senonset,trigger_verbsonset,trigger_1_F0,trigger_suffix,trigger_2_F0,ID_item,ID_senonset,ID_verbonset,ID_1_F0,ID_suffix,ID_2_F0,ms_senonset,ms_verbonset,ms_1_F0,ms_suffix,ms_2_F0,file_name,sentence,cond,combo,thisN,thisTrialN,thisRepN,key_resp_4.keys,key_resp_4.corr,key_resp_4.rt,key_resp_4.duration,key_resp_5.keys,item_id,key_resp_2.keys,key_resp_2.corr,key_resp_2.rt,key_resp_2.duration,key_resp_5.rt,key_resp_5.duration,practice_trials.thisRepN,practice_trials.thisTrialN,practice_trials.thisN,practice_trials.thisIndex,experimental_trials.thisRepN,experimental_trials.thisTrialN,experimental_trials.thisN,experimental_trials.thisIndex,thisRow.t,notes,instructions.started,instr.started,key_resp.started,instructions.stopped,key_resp.keys,key_resp.rt,key_resp.duration,init_practice.started,init_practice.stopped,test_practice.started,test_sound_2.started,key_resp_4.started,polygon.started,serialPort_item_2.started,serialPort_item_2.stopped,test_sound_2.stopped,test_practice.stopped,practice_trials.key_resp_4.keys,practice_trials.key_resp_4.corr,practice_trials.key_resp_4.rt,practice_trials.key_resp_4.duration,takeabreak.started,takeabreak.stopped,practice_trials.key_resp_5.keys,init_trials.started,init_trials.stopped,test.started,test_sound.started,key_resp_2.started,polygon_2.started,serialPort_item.started,serialPort_item.stopped,test_sound.stopped,test.stopped,experimental_trials.key_resp_2.keys,experimental_trials.key_resp_2.corr,experimental_trials.key_resp_2.rt,experimental_trials.key_resp_2.duration,experimental_trials.key_resp_5.keys,text_3.started,key_resp_5.started,experimental_trials.key_resp_5.rt,experimental_trials.key_resp_5.duration,Thanks.started,text_2.started,key_resp_thanks.started,Thanks.stopped,key_resp_thanks.keys,key_resp_thanks.rt,key_resp_thanks.duration,participant,session,date,expName,psychopyVersion,frameRate,expStart,
,,,,,,,,,,,,,,,,,,,,,,,,,,,,,,,,,,,,,,,,,,,,,,,,,,,,0.0028883999912068248,0.013708699989365414,0.013708699989365414,3453.6276212999946,space,3453.588183200016,None,,,,,,,,,,,,,,,,,,,,,,,,,,,,,,,,,,,,,,,,,,,,23_L2,001,2025-05-01_09h56.00.606,LangExperimentstress,2024.2.4,59.500044914996835,2025-05-01 09h56.19.687259 -0400,
,,,,,,,,,,,,,,,,,,,,,,,,,,,,,,,,,,,,,,,,,,,,,,,,,,,,,,,,,,,3453.627709499997,3453.628272300004,,,,,,,,,,,,,,,,,,,,,,,,,,,,,,,,,,,,,,,,,,23_L2,001,2025-05-01_09h56.00.606,LangExperimentstress,2024.2.4,59.500044914996835,2025-05-01 09h56.19.687259 -0400,
sounds/p1a_saltar.wav,CVC,Stressed,Match,present,num_1,0.0,0.205513,0.8629519999999999,0.984841,1.219715,1.27,101,10,11,12,13,14,0.005513,0.662952,0.784841,1.019715,1.07,p1a_saltar.wav,p1,a,p1a,0,0,0,right,0,5.24412809999194,None,None,,,,,,,,0,0,0,0,,,,,3453.653336599993,,,,,,,,,,,3453.642613600008,3453.6427209333424,3453.653336599993,3453.653336599993,0.014357300009578466,0.025641499989433214,3455.8926090000023,3458.9118683999986,right,0,5.24412809999194,None,3458.9156514999922,3458.9157351999893,None,,,,,,,,,,,,,,,,,,,,,,,,,,,23_L2,001,2025-05-01_09h56.00.606,LangExperimentstress,2024.2.4,59.500044914996835,2025-05-01 09h56.19.687259 -0400,
sounds/p4d_cortar.wav,CVC,Stressed,Mismatch,past,num_2,0.0,0.205513,0.8629519999999999,0.984841,1.219715,1.27,101,40,41,42,43,44,0.005513,0.662952,0.784841,1.019715,1.07,p4d_cortar.wav,p4,d,p4d,1,1,0,right,0,3.6085515999875497,None,None,,,,,,,,0,1,1,3,,,,,3458.9370670999924,,,,,,,,,,,3458.9252578000014,3458.9262243666785,3458.9370670999924,3458.9370670999924,0.009629799984395504,0.022715500002959743,3461.4589568999945,3462.5619858000136,right,0,3.6085515999875497,None,3462.5661477000103,3462.566230800003,None,,,,,,,,,,,,,,,,,,,,,,,,,,,23_L2,001,2025-05-01_09h56.00.606,LangExperimentstress,2024.2.4,59.500044914996835,2025-05-01 09h56.19.687259 -0400,
sounds/p2b_cortar.wav,CVC,Unstressed,Mismatch,present,num_1,0.0,0.205513,0.8629519999999999,0.984841,1.219715,1.27,101,20,21,22,23,24,0.005513,0.662952,0.784841,1.019715,1.07,p2b_cortar.wav,p2,b,p2b,2,2,0,right,0,13.801308900001459,None,None,,,,,,,,0,2,2,1,,,,,3462.584799300006,,,,,,,,,,,3462.574457999988,3462.5761141666776,3462.584799300006,3462.584799300006,0.008259199996246025,0.019427699997322634,3464.843446499988,3476.395686700009,right,0,13.801308900001459,None,3476.39971540001,3476.3998046999914,None,,,,,,,,,,,,,,,,,,,,,,,,,,,23_L2,001,2025-05-01_09h56.00.606,LangExperimentstress,2024.2.4,59.500044914996835,2025-05-01 09h56.19.687259 -0400,
sounds/p3c_saltar.wav,CVC,Unstressed,Match,past,num_2,0.0,0.205513,0.8629519999999999,0.984841,1.219715,1.27,101,30,31,32,33,34,0.005513,0.662952,0.784841,1.019715,1.07,p3c_saltar.wav,p3,c,p3c,3,3,0,left,0,3.2224038999993354,None,None,,,,,,,,0,3,3,2,,,,,3476.4193886999856,,,,,,,,,,,3476.4071566000057,3476.4096783666796,3476.4193886999856,3476.4193886999856,0.007392600004095584,0.020781600003829226,3478.509832200012,3479.645790599985,left,0,3.2224038999993354,None,3479.649417800014,3479.6495054000115,None,,,,,,,,,,,,,,,,,,,,,,,,,,,23_L2,001,2025-05-01_09h56.00.606,LangExperimentstress,2024.2.4,59.500044914996835,2025-05-01 09h56.19.687259 -0400,
,,,,,,,,,,,,,,,,,,,,,,,,,,,,,,,,,,,,,,,,,,,,,,,,,,,,3479.6497366999974,3479.659832300007,3479.659832300007,3526.7637295000022,space,47.10146000000532,None,,,,,,,,,,,,,,,,,,,,,,,,,,,,,,,,,,,,,,,,,,,,23_L2,001,2025-05-01_09h56.00.606,LangExperimentstress,2024.2.4,59.500044914996835,2025-05-01 09h56.19.687259 -0400,
,,,,,,,,,,,,,,,,,,,,,,,,,,,,,,,,,,,,,,,,,,,,,,,,,,,,,,,,,,,,,,,,,,,,,,,,,,,,3526.763822899986,3526.7650595000014,,,,,,,,,,,,,,,,,,,,,,,,,23_L2,001,2025-05-01_09h56.00.606,LangExperimentstress,2024.2.4,59.500044914996835,2025-05-01 09h56.19.687259 -0400,
sounds/31d_tocar.wav,CVC,Stressed,Mismatch,past,num_2,0.0,0.2,0.8493931756807,0.8650112062639721,1.006860547391531,1.049162047334928,101,40,41,42,43,44,0,0.6493931756807,0.665011206263972,0.806860547391531,0.849162047334928,31d_tocar.wav,,d,,0,0,0,,,,,None,31,right,0,4.672751599980984,None,,,,,,,0,0,0,30,3526.80147939999,,,,,,,,,,,,,,,,,,,,,,,3531.484119600005,3531.484200900013,,,,3526.7900300000038,3526.7945642333443,3526.80147939999,3526.80147939999,0.024962700001196936,0.03740309999557212,3528.711200199992,3531.480325599987,right,0,4.672751599980984,None,None,,,,,,,,,,,,23_L2,001,2025-05-01_09h56.00.606,LangExperimentstress,2024.2.4,59.500044914996835,2025-05-01 09h56.19.687259 -0400,
sounds/05a_fumar.wav,CVC,Stressed,Match,present,num_1,0.0,0.2,1.15,1.36712555700231,1.48,1.56308830295138,101,10,11,12,13,14,0,0.95,1.16712555700231,1.28,1.36308830295138,05a_fumar.wav,,a,,1,1,0,,,,,None,5,left,0,2.977292399998987,None,,,,,,,0,1,1,38,3531.5040859,,,,,,,,,,,,,,,,,,,,,,,3534.4983065999986,3534.4983662999875,,,,3531.4916164999886,3531.494496966658,3531.5040859,3531.5040859,0.007434200000716373,0.0210017999925185,3533.8657449999882,3534.495882899995,left,0,2.977292399998987,None,None,,,,,,,,,,,,23_L2,001,2025-05-01_09h56.00.606,LangExperimentstress,2024.2.4,59.500044914996835,2025-05-01 09h56.19.687259 -0400,
sounds/21a_mezclar.wav,CVC,Stressed,Match,present,num_1,0.0,0.2,0.78,0.9121902777777772,1.20214212962962,1.27,101,10,11,12,13,14,0,0.58,0.712190277777777,1.00214212962962,1.07,21a_mezclar.wav,,a,,2,2,0,,,,,None,21,left,0,6.927939499990316,None,,,,,,,0,2,2,27,3534.513978700008,,,,,,,,,,,,,,,,,,,,,,,3541.4519862000016,3541.452075100009,,,,3534.5038114000054,3534.5110194666527,3534.513978700008,3534.513978700008,0.005469899973832071,0.016657999978633597,3536.5279435999983,3541.447573399986,left,0,6.927939499990316,None,None,,,,,,,,,,,,23_L2,001,2025-05-01_09h56.00.606,LangExperimentstress,2024.2.4,59.500044914996835,2025-05-01 09h56.19.687259 -0400,
sounds/18b_cumplir.wav,CVC,Unstressed,Mismatch,present,num_1,0.0,0.2,1.2408027271412,1.25568597366898,1.46256310040509,1.54144430700231,101,20,21,22,23,24,0,1.0408027271412,1.05568597366898,1.26256310040509,1.34144430700231,18b_cumplir.wav,,b,,3,3,0,,,,,None,18,left,0,8.057907200010959,None,,,,,,,0,3,3,29,3541.472550400009,,,,,,,,,,,,,,,,,,,,,,,3549.551585100009,3549.551658799988,,,,3541.460909299989,3541.4615623666655,3541.472550400009,3541.472550400009,0.008868000004440546,0.021627299982355908,3543.6612254999927,3549.54749669999,left,0,8.057907200010959,None,None,,,,,,,,,,,,23_L2,001,2025-05-01_09h56.00.606,LangExperimentstress,2024.2.4,59.500044914996835,2025-05-01 09h56.19.687259 -0400,
sounds/12a_matar.wav,CVC,Stressed,Match,present,num_1,0.0,0.2,0.8400000000000001,0.96,1.17307472511574,1.186647497106481,101,10,11,12,13,14,0,0.64,0.76,0.97307472511574,0.986647497106481,12a_matar.wav,,a,,4,4,0,,,,,None,12,right,0,3.3354467999888584,None,,,,,,,0,4,4,25,3549.5704400000104,,,,,,,,,,,,,,,,,,,,,,,3552.9186512999877,3552.918731499987,,,,3549.5590680000023,3549.561569066664,3549.5704400000104,3549.5704400000104,0.007448200020007789,0.019695299997692928,3551.7614833000116,3552.9146206000005,right,0,3.3354467999888584,None,None,,,,,,,,,,,,23_L2,001,2025-05-01_09h56.00.606,LangExperimentstress,2024.2.4,59.500044914996835,2025-05-01 09h56.19.687259 -0400,
sounds/28d_parar.wav,CVC,Stressed,Mismatch,past,num_2,0.0,0.2,0.8458860026041659,0.862313736979166,1.018194683159722,1.032797113715277,101,40,41,42,43,44,0,0.645886002604166,0.662313736979166,0.818194683159722,0.832797113715277,28d_parar.wav,,d,,5,5,0,,,,,None,28,right,0,5.889025999989826,None,,,,,,,0,5,5,18,3552.9366032000107,,,,,,,,,,,,,,,,,,,,,,,3558.8354768000136,3558.835573599994,,,,3552.9253763000015,3552.9286830666574,3552.9366032000107,3552.9366032000107,0.006656700017629191,0.018867400009185076,3554.861597799987,3558.831427199999,right,0,5.889025999989826,None,None,,,,,,,,,,,,23_L2,001,2025-05-01_09h56.00.606,LangExperimentstress,2024.2.4,59.500044914996835,2025-05-01 09h56.19.687259 -0400,
sounds/02c_buscar.wav,CVC,Unstressed,Match,past,num_2,0.0,0.2,0.8700000000000001,1.07,1.26,1.40703946035879,101,30,31,32,33,34,0,0.67,0.87,1.06,1.20703946035879,02c_buscar.wav,,c,,6,6,0,,,,,None,2,left,0,3.689915299997665,None,,,,,,,0,6,6,34,3558.8564190999896,,,,,,,,,,,,,,,,,,,,,,,3562.5669454000017,3562.567026900011,,,,3558.8449249000114,3558.8453012666764,3558.8564190999896,3558.8564190999896,0.009411799983354285,0.021916600002441555,3560.9952182999987,3562.5642207000055,left,0,3.689915299997665,None,None,,,,,,,,,,,,23_L2,001,2025-05-01_09h56.00.606,LangExperimentstress,2024.2.4,59.500044914996835,2025-05-01 09h56.19.687259 -0400,
sounds/20c_cubrir.wav,CVC,Unstressed,Match,past,num_2,0.0,0.2,0.980138641742621,1.01,1.192436112212021,1.28412143493692,101,30,31,32,33,34,0,0.780138641742621,0.81,0.992436112212021,1.08412143493692,20c_cubrir.wav,,c,,7,7,0,,,,,None,20,right,0,4.45621570001822,None,,,,,,,0,7,7,31,3562.5849540999916,,,,,,,,,,,,,,,,,,,,,,,3567.0513781000045,3567.051467000012,,,,3562.5734711000114,3562.5785723666527,3562.5849540999916,3562.5849540999916,0.00648650000221096,0.018826399988029152,3564.7117396999965,3567.0479744999902,right,0,4.45621570001822,None,None,,,,,,,,,,,,23_L2,001,2025-05-01_09h56.00.606,LangExperimentstress,2024.2.4,59.500044914996835,2025-05-01 09h56.19.687259 -0400,
sounds/37b_pasar.wav,CVC,Unstressed,Mismatch,present,num_1,0.0,0.2,1.033132486979166,1.052087565104166,1.159499674479166,1.27702115885416,101,20,21,22,23,24,0,0.833132486979166,0.852087565104166,0.959499674479166,1.07702115885416,37b_pasar.wav,,b,,8,8,0,,,,,None,37,left,0,5.949962599988794,None,,,,,,,0,8,8,23,3567.067955400009,,,,,,,,,,,,,,,,,,,,,,,3573.0321848999884,3573.032243099995,,,,3567.0585728999868,3567.0619575666537,3567.067955400009,3567.067955400009,0.007100099988747388,0.017170600011013448,3569.1781106000126,3573.029855300003,left,0,5.949962599988794,None,None,,,,,,,,,,,,23_L2,001,2025-05-01_09h56.00.606,LangExperimentstress,2024.2.4,59.500044914996835,2025-05-01 09h56.19.687259 -0400,
sounds/22d_dejar.wav,CVC,Stressed,Mismatch,past,num_2,0.0,0.2,0.8500000000000001,1.02,1.152543366608796,1.28794346788194,101,40,41,42,43,44,0,0.65,0.82,0.952543366608796,1.08794346788194,22d_dejar.wav,,d,,9,9,0,,,,,space,22,right,0,7.074049199989531,None,2.3593620999890845,None,,,,,0,9,9,14,3573.0481392999936,,,,,,,,,,,,,,,,,,,,,,,3580.1350257000013,3582.514658100001,,,,3573.037550000008,3573.044902966653,3573.0481392999936,3573.0481392999936,0.005331399996066466,0.016840299998875707,3575.0957330999954,3580.131704200001,right,0,7.074049199989531,None,space,3580.1456487000105,3580.1456487000105,2.3593620999890845,None,,,,,,,,23_L2,001,2025-05-01_09h56.00.606,LangExperimentstress,2024.2.4,59.500044914996835,2025-05-01 09h56.19.687259 -0400,
sounds/38b_pagar.wav,CVC,Unstressed,Mismatch,present,num_1,0.0,0.2,1.166737304687499,1.185271158854166,1.29521061197916,1.4055712890624898,101,20,21,22,23,24,0,0.966737304687499,0.985271158854166,1.09521061197916,1.20557128906249,38b_pagar.wav,,b,,10,10,0,,,,,None,38,left,0,6.474237300019013,None,,,,,,,0,10,10,17,3582.5591872000077,,,,,,,,,,,,,,,,,,,,,,,3589.050834599999,3589.0509108999977,,,,3582.547250100004,3582.5623090000126,3582.5591872000077,3582.5591872000077,0.032587100024102256,0.045638600015081465,3584.8126030999993,3589.0480899999966,left,0,6.474237300019013,None,None,,,,,,,,,,,,23_L2,001,2025-05-01_09h56.00.606,LangExperimentstress,2024.2.4,59.500044914996835,2025-05-01 09h56.19.687259 -0400,
sounds/29a_pesar.wav,CVC,Stressed,Match,present,num_1,0.0,0.2,0.91328417532552,0.925531286730473,1.03,1.150619522602117,101,10,11,12,13,14,0,0.71328417532552,0.725531286730473,0.83,0.950619522602117,29a_pesar.wav,,a,,11,11,0,,,,,None,29,right,0,2.9031541000003926,None,,,,,,,0,11,11,32,3589.0666669000057,,,,,,,,,,,,,,,,,,,,,,,3591.985813999985,3591.9859025999904,,,,3589.057055799989,3589.0623808666755,3589.0666669000057,3589.0666669000057,0.006158200005302206,0.016588700003921986,3590.979099999997,3591.9816314000054,right,0,2.9031541000003926,None,None,,,,,,,,,,,,23_L2,001,2025-05-01_09h56.00.606,LangExperimentstress,2024.2.4,59.500044914996835,2025-05-01 09h56.19.687259 -0400,
sounds/34c_formar.wav,CVC,Unstressed,Match,past,num_2,0.0,0.2,0.876373676215277,0.992687651909722,1.14,1.26319767795138,101,30,31,32,33,34,0,0.676373676215277,0.792687651909722,0.94,1.06319767795138,34c_formar.wav,,c,,12,12,0,,,,,None,34,left,0,15.28202510002302,None,,,,,,,0,12,12,2,3592.0077698999958,,,,,,,,,,,,,,,,,,,,,,,3607.299106999999,3607.299161700008,,,,3591.9953965999885,3591.9958716666774,3592.0077698999958,3592.0077698999958,0.009534300013910979,0.02313990000402555,3594.2464891000127,3607.2972769000044,left,0,15.28202510002302,None,None,,,,,,,,,,,,23_L2,001,2025-05-01_09h56.00.606,LangExperimentstress,2024.2.4,59.500044914996835,2025-05-01 09h56.19.687259 -0400,
sounds/06d_soplar.wav,CVC,Stressed,Mismatch,past,num_2,0.0,0.2,0.761291666666666,0.8899999999999999,1.102139687590422,1.166665581687644,101,40,41,42,43,44,0,0.561291666666666,0.69,0.902139687590422,0.966665581687644,06d_soplar.wav,,d,,13,13,0,,,,,None,6,right,0,3.856227000011131,None,,,,,,,0,13,13,16,3607.3142899000086,,,,,,,,,,,,,,,,,,,,,,,3611.1859848999884,3611.1860682000115,,,,3607.3035227000073,3607.3123144666647,3607.3142899000086,3607.3142899000086,0.004377399978693575,0.016174199990928173,3609.196557099989,3611.1822237999877,right,0,3.856227000011131,None,None,,,,,,,,,,,,23_L2,001,2025-05-01_09h56.00.606,LangExperimentstress,2024.2.4,59.500044914996835,2025-05-01 09h56.19.687259 -0400,
sounds/17d_tragar.wav,CVC,Stressed,Mismatch,past,num_2,0.0,0.2,1.070609360532407,1.117973654513888,1.30915316840277,1.35458539534397,101,40,41,42,43,44,0,0.870609360532407,0.917973654513888,1.10915316840277,1.15458539534397,17d_tragar.wav,,d,,14,14,0,,,,,None,17,left,0,4.61210320002283,None,,,,,,,0,14,14,26,3611.205868499994,,,,,,,,,,,,,,,,,,,,,,,3615.8362539999944,3615.836344899988,,,,3611.193463500007,3611.1963870666555,3611.205868499994,3611.205868499994,0.007425099989632145,0.020895599998766556,3613.513058200013,3615.8319169000024,left,0,4.61210320002283,None,None,,,,,,,,,,,,23_L2,001,2025-05-01_09h56.00.606,LangExperimentstress,2024.2.4,59.500044914996835,2025-05-01 09h56.19.687259 -0400,
sounds/16a_llevar.wav,CVC,Stressed,Match,present,num_1,0.0,0.2,0.929084516317274,0.964936524692279,1.08,1.131864014418682,101,10,11,12,13,14,0,0.729084516317274,0.764936524692279,0.88,0.931864014418682,16a_llevar.wav,,a,,15,15,0,,,,,None,16,right,0,4.057377599994652,None,,,,,,,0,15,15,21,3615.856338200014,,,,,,,,,,,,,,,,,,,,,,,3619.919737199991,3619.919830800005,,,,3615.843449899985,3615.8463668666705,3615.856338200014,3615.856338200014,0.007132300001103431,0.021134399983566254,3617.762942500005,3619.9158767999907,right,0,4.057377599994652,None,None,,,,,,,,,,,,23_L2,001,2025-05-01_09h56.00.606,LangExperimentstress,2024.2.4,59.500044914996835,2025-05-01 09h56.19.687259 -0400,
sounds/03b_limpiar.wav,CVC,Unstressed,Mismatch,present,num_1,0.0,0.2,0.8500000000000001,0.932367621527777,1.26878515625,1.35808463541666,101,20,21,22,23,24,0,0.65,0.732367621527777,1.06878515625,1.15808463541666,03b_limpiar.wav,,b,,16,16,0,,,,,None,3,left,0,2.7180756000161637,None,,,,,,,0,16,16,4,3619.9394350000075,,,,,,,,,,,,,,,,,,,,,,,3622.669890799996,3622.6699813999876,,,,3619.9288574999955,3619.929945766668,3619.9394350000075,3619.9394350000075,0.009096800000406802,0.02096789999632165,3622.079793599987,3622.6658966999967,left,0,2.7180756000161637,None,None,,,,,,,,,,,,23_L2,001,2025-05-01_09h56.00.606,LangExperimentstress,2024.2.4,59.500044914996835,2025-05-01 09h56.19.687259 -0400,
sounds/10d_vender.wav,CVC,Stressed,Mismatch,past,num_2,0.0,0.2,0.832830209056713,0.8775468199411529,1.109501330306288,1.158928471023364,101,40,41,42,43,44,0,0.632830209056713,0.677546819941153,0.909501330306288,0.958928471023364,10d_vender.wav,,d,,17,17,0,,,,,None,10,right,0,2.3533704000001308,None,,,,,,,0,17,17,12,3622.6878736999934,,,,,,,,,,,,,,,,,,,,,,,3625.053252999991,3625.0533446999907,,,,3622.676520500012,3622.6798664666753,3622.6878736999934,3622.6878736999934,0.006551400001626462,0.01920579999568872,3624.596639399999,3625.0495404000103,right,0,2.3533704000001308,None,None,,,,,,,,,,,,23_L2,001,2025-05-01_09h56.00.606,LangExperimentstress,2024.2.4,59.500044914996835,2025-05-01 09h56.19.687259 -0400,
sounds/07c_tumbar.wav,CVC,Unstressed,Match,past,num_2,0.0,0.2,0.9084024930273432,0.9247360728973012,1.143289673625005,1.154847989033482,101,30,31,32,33,34,0,0.708402493027343,0.724736072897301,0.943289673625005,0.954847989033482,07c_tumbar.wav,,c,,18,18,0,,,,,None,7,left,0,5.594352600019192,None,,,,,,,0,18,18,6,3625.0722285000084,,,,,,,,,,,,,,,,,,,,,,,3630.686246199999,3630.6863370999927,,,,3625.0601423000044,3625.0632795666793,3625.0722285000084,3625.0722285000084,0.006814899999881163,0.019873699988238513,3627.031374699989,3630.6824063000095,left,0,5.594352600019192,None,None,,,,,,,,,,,,23_L2,001,2025-05-01_09h56.00.606,LangExperimentstress,2024.2.4,59.500044914996835,2025-05-01 09h56.19.687259 -0400,
sounds/01d_salvar.wav,CVC,Stressed,Mismatch,past,num_2,0.0,0.2,0.8500000000000001,0.996069502314814,1.23,1.29,101,40,41,42,43,44,0,0.65,0.796069502314814,1.03,1.09,01d_salvar.wav,,d,,19,19,0,,,,,space,1,right,0,5.318703700002516,None,7.066529300005641,None,,,,,0,19,19,37,3630.706503399997,,,,,,,,,,,,,,,,,,,,,,,3636.0370769999863,3643.1164216999896,,,,3630.693818700005,3630.696831266662,3630.706503399997,3630.706503399997,0.007512999989558011,0.021327099995687604,3632.763344100007,3636.0329884999956,right,0,5.318703700002516,None,space,3636.046936700004,3636.046936700004,7.066529300005641,None,,,,,,,,23_L2,001,2025-05-01_09h56.00.606,LangExperimentstress,2024.2.4,59.500044914996835,2025-05-01 09h56.19.687259 -0400,
sounds/14b_borrar.wav,CVC,Unstressed,Mismatch,present,num_1,0.0,0.2,0.72,0.770187630208333,0.851961241319444,0.964399956597222,101,20,21,22,23,24,0,0.52,0.570187630208333,0.651961241319444,0.764399956597222,14b_borrar.wav,,b,,20,20,0,,,,,None,14,left,0,3.3130940000119153,None,,,,,,,0,20,20,20,3643.136030099995,,,,,,,,,,,,,,,,,,,,,,,3646.4682373999967,3646.4683253999974,,,,3643.1237268999976,3643.1303590666544,3643.136030099995,3643.136030099995,0.007289100001798943,0.02064010000322014,3645.0805502999865,3646.46509350001,left,0,3.3130940000119153,None,None,,,,,,,,,,,,23_L2,001,2025-05-01_09h56.00.606,LangExperimentstress,2024.2.4,59.500044914996835,2025-05-01 09h56.19.687259 -0400,
sounds/39b_manchar.wav,CVC,Unstressed,Mismatch,present,num_1,0.0,0.2,0.81,0.91203755787037,1.140584317129629,1.2139708912037,101,20,21,22,23,24,0,0.61,0.71203755787037,0.940584317129629,1.0139708912037,39b_manchar.wav,,b,,21,21,0,,,,,None,39,right,0,2.9594465999980457,None,,,,,,,0,21,21,7,3646.4835611000017,,,,,,,,,,,,,,,,,,,,,,,3649.453921999986,3649.454008200002,,,,3646.4731132999877,3646.479920566668,3646.4835611000017,3646.4835611000017,0.004794899985427037,0.016109199990751222,3648.730624399992,3649.4497140999883,right,0,2.9594465999980457,None,None,,,,,,,,,,,,23_L2,001,2025-05-01_09h56.00.606,LangExperimentstress,2024.2.4,59.500044914996835,2025-05-01 09h56.19.687259 -0400,
sounds/33b_culpar.wav,CVC,Unstressed,Mismatch,present,num_1,0.0,0.2,0.8606178431336959,0.869103678029107,1.109891641372144,1.131540467434179,101,20,21,22,23,24,0,0.660617843133696,0.669103678029107,0.909891641372144,0.931540467434179,33b_culpar.wav,,b,,22,22,0,,,,,None,33,left,0,2.609054100001231,None,,,,,,,0,22,22,35,3649.4722401000035,,,,,,,,,,,,,,,,,,,,,,,3652.087536600011,3652.0876141999906,,,,3649.4616382000095,3649.464031166663,3649.4722401000035,3649.4722401000035,0.007772299984935671,0.019018299994058907,3651.6474118999904,3652.0834011000115,left,0,2.609054100001231,None,None,,,,,,,,,,,,23_L2,001,2025-05-01_09h56.00.606,LangExperimentstress,2024.2.4,59.500044914996835,2025-05-01 09h56.19.687259 -0400,
sounds/36c_bordar.wav,CVC,Unstressed,Match,past,num_2,0.0,0.2,1.0,1.078468243634259,1.3288624855324,1.3414992042824,101,30,31,32,33,34,0,0.8,0.878468243634259,1.1288624855324,1.1414992042824,36c_bordar.wav,,c,,23,23,0,,,,,None,36,right,0,8.255599899974186,None,,,,,,,0,23,23,1,3652.107664400013,,,,,,,,,,,,,,,,,,,,,,,3660.3706896000076,3660.370778599987,,,,3652.0945630999922,3652.097281866653,3652.107664400013,3652.107664400013,0.0070035000098869205,0.0210637999989558,3654.3811162000056,3660.3667824000004,right,0,8.255599899974186,None,None,,,,,,,,,,,,23_L2,001,2025-05-01_09h56.00.606,LangExperimentstress,2024.2.4,59.500044914996835,2025-05-01 09h56.19.687259 -0400,
sounds/40c_gastar.wav,CVC,Unstressed,Match,past,num_2,0.0,0.2,0.8300000000000001,0.8400000000000001,1.163436328125,1.183149609375,101,30,31,32,33,34,0,0.63,0.64,0.963436328125,0.983149609375,40c_gastar.wav,,c,,24,24,0,,,,,None,40,right,0,7.404669000010472,None,,,,,,,0,24,24,0,3660.3887360999943,,,,,,,,,,,,,,,,,,,,,,,3667.804541199992,3667.8046295999957,,,,3660.3772508999973,3660.381057166673,3660.3887360999943,3660.3887360999943,0.0064999999885912985,0.01882230001501739,3662.5143449000025,3667.800250500004,right,0,7.404669000010472,None,None,,,,,,,,,,,,23_L2,001,2025-05-01_09h56.00.606,LangExperimentstress,2024.2.4,59.500044914996835,2025-05-01 09h56.19.687259 -0400,
sounds/26a_bajar.wav,CVC,Stressed,Match,present,num_1,0.0,0.2,0.77,0.8999999999999999,1.03,1.171181705729166,101,10,11,12,13,14,0,0.57,0.7,0.83,0.971181705729166,26a_bajar.wav,,a,,25,25,0,,,,,None,26,right,0,4.248254000005545,None,,,,,,,0,25,25,13,3667.825836700009,,,,,,,,,,,,,,,,,,,,,,,3672.0880543999956,3672.088144700014,,,,3667.8128894999973,3667.8143264666764,3667.825836700009,3667.825836700009,0.008380600018426776,0.022436900006141514,3669.897829099995,3672.0841911000025,right,0,4.248254000005545,None,None,,,,,,,,,,,,23_L2,001,2025-05-01_09h56.00.606,LangExperimentstress,2024.2.4,59.500044914996835,2025-05-01 09h56.19.687259 -0400,
sounds/15b_partir.wav,CVC,Unstressed,Mismatch,present,num_1,0.0,0.2,0.826865400752314,0.842973894883327,1.1042888772729471,1.120815958498066,101,20,21,22,23,24,0,0.626865400752314,0.642973894883327,0.904288877272947,0.920815958498066,15b_partir.wav,,b,,26,26,0,,,,,None,15,left,0,5.439478099986445,None,,,,,,,0,26,26,22,3672.1066988999955,,,,,,,,,,,,,,,,,,,,,,,3677.5551801999973,3677.5552873999986,,,,3672.0948352999985,3672.0981333666755,3672.1066988999955,3672.1066988999955,0.006751299981260672,0.019725199992535636,3674.1647972000064,3677.5515907999943,left,0,5.439478099986445,None,None,,,,,,,,,,,,23_L2,001,2025-05-01_09h56.00.606,LangExperimentstress,2024.2.4,59.500044914996835,2025-05-01 09h56.19.687259 -0400,
sounds/27c_tirar.wav,CVC,Unstressed,Match,past,num_2,0.0,0.2,0.8119442057291659,0.8307495153356481,0.9885306495949072,0.998621303530092,101,30,31,32,33,34,0,0.611944205729166,0.630749515335648,0.788530649594907,0.798621303530092,27c_tirar.wav,,c,,27,27,0,,,,,None,27,left,0,7.697313000011491,None,,,,,,,0,27,27,10,3677.5757900000026,,,,,,,,,,,,,,,,,,,,,,,3685.2874731000047,3685.2875675999967,,,,3677.5645727000083,3677.5652321666753,3677.5757900000026,3677.5757900000026,0.009306099993409589,0.021504500007722527,3679.5810712999955,3685.283623299998,left,0,7.697313000011491,None,None,,,,,,,,,,,,23_L2,001,2025-05-01_09h56.00.606,LangExperimentstress,2024.2.4,59.500044914996835,2025-05-01 09h56.19.687259 -0400,
sounds/11a_pegar.wav,CVC,Stressed,Match,present,num_1,0.0,0.2,0.8182808977343741,0.831294515585661,0.98,1.012063288108519,101,10,11,12,13,14,0,0.618280897734374,0.631294515585661,0.78,0.812063288108519,11a_pegar.wav,,a,,28,28,0,,,,,None,11,right,0,3.9106393000110984,None,,,,,,,0,28,28,3,3685.307071599993,,,,,,,,,,,,,,,,,,,,,,,3689.237806499994,3689.237896400009,,,,3685.294941,3685.2978194666543,3685.307071599993,3685.307071599993,0.007400000002235174,0.020728800009237602,3687.2480903000105,3689.2338196999917,right,0,3.9106393000110984,None,None,,,,,,,,,,,,23_L2,001,2025-05-01_09h56.00.606,LangExperimentstress,2024.2.4,59.500044914996835,2025-05-01 09h56.19.687259 -0400,
sounds/25b_ganar.wav,CVC,Unstressed,Mismatch,present,num_1,0.0,0.2,1.152097938368055,1.15990068760488,1.28904165650454,1.37272500435153,101,20,21,22,23,24,0,0.952097938368055,0.95990068760488,1.08904165650454,1.17272500435153,25b_ganar.wav,,b,,29,29,0,,,,,space,25,right,0,3.456732100021327,None,9.502095200004987,None,,,,,0,29,29,8,3689.257078800001,,,,,,,,,,,,,,,,,,,,,,,3692.7215929999948,3702.2512470000074,,,,3689.2448794000084,3689.247981066674,3689.257078800001,3689.257078800001,0.006997299991780892,0.020079200010513887,3691.6144109999877,3692.71752440001,right,0,3.456732100021327,None,space,3692.7313222000084,3692.7313222000084,9.502095200004987,None,,,,,,,,23_L2,001,2025-05-01_09h56.00.606,LangExperimentstress,2024.2.4,59.500044914996835,2025-05-01 09h56.19.687259 -0400,
sounds/08d_filtrar.wav,CVC,Stressed,Mismatch,past,num_2,0.0,0.2,0.7526856695589441,0.87808115762362,1.118901843962886,1.172598812485867,101,40,41,42,43,44,0,0.552685669558944,0.67808115762362,0.918901843962886,0.972598812485867,08d_filtrar.wav,,d,,30,30,0,,,,,None,8,left,0,3.134491100005107,None,,,,,,,0,30,30,15,3702.26731570001,,,,,,,,,,,,,,,,,,,,,,,3705.4217703999893,3705.4218529000063,,,,3702.2566895000055,3702.2653673666687,3702.26731570001,3702.26731570001,0.005414099985500798,0.017094399983761832,3704.0318466000026,3705.4179947999946,left,0,3.134491100005107,None,None,,,,,,,,,,,,23_L2,001,2025-05-01_09h56.00.606,LangExperimentstress,2024.2.4,59.500044914996835,2025-05-01 09h56.19.687259 -0400,
sounds/35b_secar.wav,CVC,Unstressed,Mismatch,present,num_1,0.0,0.2,0.8990044921875,1.025708658854166,1.179689416956018,1.20652606336805,101,20,21,22,23,24,0,0.6990044921875,0.825708658854166,0.979689416956018,1.00652606336805,35b_secar.wav,,b,,31,31,0,,,,,None,35,left,0,4.624798899982125,None,,,,,,,0,31,31,5,3705.440906700009,,,,,,,,,,,,,,,,,,,,,,,3710.0712592999917,3710.071354499989,,,,3705.4289935000124,3705.4320820666658,3705.440906700009,3705.440906700009,0.0071681000117678195,0.0200089999998454,3707.5816355000134,3710.0679641999886,left,0,4.624798899982125,None,None,,,,,,,,,,,,23_L2,001,2025-05-01_09h56.00.606,LangExperimentstress,2024.2.4,59.500044914996835,2025-05-01 09h56.19.687259 -0400,
sounds/13c_montar.wav,CVC,Unstressed,Match,past,num_2,0.0,0.2,0.8800000000000001,0.98,1.24543012152777,1.2594709201388798,101,30,31,32,33,34,0,0.68,0.78,1.04543012152777,1.05947092013888,13c_montar.wav,,c,,32,32,0,,,,,None,13,right,0,3.34390410000924,None,,,,,,,0,32,32,33,3710.0894229999976,,,,,,,,,,,,,,,,,,,,,,,3713.455073799996,3713.455168799992,,,,3710.078287499986,3710.0819003666734,3710.0894229999976,3710.0894229999976,0.00694719998864457,0.019012499978998676,3712.3824856999854,3713.4510811000073,right,0,3.34390410000924,None,None,,,,,,,,,,,,23_L2,001,2025-05-01_09h56.00.606,LangExperimentstress,2024.2.4,59.500044914996835,2025-05-01 09h56.19.687259 -0400,
sounds/32d_pulsar.wav,CVC,Stressed,Mismatch,past,num_2,0.0,0.2,0.796440212673611,0.8294641710069439,0.99,1.097783832465277,101,40,41,42,43,44,0,0.596440212673611,0.629464171006944,0.79,0.897783832465277,32d_pulsar.wav,,d,,33,33,0,,,,,None,32,right,0,3.1584705999994185,None,,,,,,,0,33,33,24,3713.474931200006,,,,,,,,,,,,,,,,,,,,,,,3716.655365399987,3716.6554635000066,,,,3713.463242800004,3713.4654929666763,3713.474931200006,3713.474931200006,0.008216099988203496,0.020814599993173033,3715.281974999991,3716.651118799986,right,0,3.1584705999994185,None,None,,,,,,,,,,,,23_L2,001,2025-05-01_09h56.00.606,LangExperimentstress,2024.2.4,59.500044914996835,2025-05-01 09h56.19.687259 -0400,
sounds/04c_plantar.wav,CVC,Unstressed,Match,past,num_2,0.0,0.2,0.862877574458911,0.9343518689653568,1.20493812332404,1.21897569287037,101,30,31,32,33,34,0,0.662877574458911,0.734351868965357,1.00493812332404,1.01897569287037,04c_plantar.wav,,c,,34,34,0,,,,,None,4,left,0,2.2948591000167653,None,,,,,,,0,34,34,9,3716.674984299985,,,,,,,,,,,,,,,,,,,,,,,3718.988963200012,3718.989054100006,,,,3716.6633867000055,3716.6656348666625,3716.674984299985,3716.674984299985,0.00801839999621734,0.020532499998807907,3718.7150261999923,3718.9849159999867,left,0,2.2948591000167653,None,None,,,,,,,,,,,,23_L2,001,2025-05-01_09h56.00.606,LangExperimentstress,2024.2.4,59.500044914996835,2025-05-01 09h56.19.687259 -0400,
sounds/09c_cargar.wav,CVC,Unstressed,Match,past,num_2,0.0,0.2,0.81286744068287,0.8382251229745361,1.032634020543981,1.090594437210648,101,30,31,32,33,34,0,0.61286744068287,0.638225122974536,0.832634020543981,0.890594437210648,09c_cargar.wav,,c,,35,35,0,,,,,None,9,left,0,7.46781750000082,None,,,,,,,0,35,35,28,3719.005997,,,,,,,,,,,,,,,,,,,,,,,3726.4886214,3726.4887103000074,,,,3718.9953681000043,3718.9990153666627,3719.005997,3719.005997,0.00632499999483116,0.01790820001042448,3720.932230000006,3726.484491400013,left,0,7.46781750000082,None,None,,,,,,,,,,,,23_L2,001,2025-05-01_09h56.00.606,LangExperimentstress,2024.2.4,59.500044914996835,2025-05-01 09h56.19.687259 -0400,
sounds/30a_fundar.wav,CVC,Stressed,Match,present,num_1,0.0,0.2,0.77,0.91,1.112685546875,1.12,101,10,11,12,13,14,0,0.57,0.71,0.912685546875,0.92,30a_fundar.wav,,a,,36,36,0,,,,,None,30,right,0,4.50806960000773,None,,,,,,,0,36,36,36,3726.50969169999,,,,,,,,,,,,,,,,,,,,,,,3731.0370710999996,3731.037140200002,,,,3726.496744700009,3726.4989449666796,3726.50969169999,3726.50969169999,0.008174600021447986,0.022220400016522035,3728.6653393000015,3731.034581499989,right,0,4.50806960000773,None,None,,,,,,,,,,,,23_L2,001,2025-05-01_09h56.00.606,LangExperimentstress,2024.2.4,59.500044914996835,2025-05-01 09h56.19.687259 -0400,
sounds/24d_mirar.wav,CVC,Stressed,Mismatch,past,num_2,0.0,0.2,0.71,0.8119545789930551,0.9389863642939812,0.9746780743634248,101,40,41,42,43,44,0,0.51,0.611954578993055,0.738986364293981,0.774678074363425,24d_mirar.wav,,d,,37,37,0,,,,,None,24,right,0,5.381575600011274,None,,,,,,,0,37,37,11,3731.0534437999886,,,,,,,,,,,,,,,,,,,,,,,3736.455221499986,3736.455291899998,,,,3731.0421546,3731.0491705666686,3731.0534437999886,3731.0534437999886,0.005040199990617111,0.017411399981938303,3732.765906799992,3736.451664299995,right,0,5.381575600011274,None,None,,,,,,,,,,,,23_L2,001,2025-05-01_09h56.00.606,LangExperimentstress,2024.2.4,59.500044914996835,2025-05-01 09h56.19.687259 -0400,
sounds/23a_tomar.wav,CVC,Stressed,Match,present,num_1,0.0,0.2,0.9453179615162032,0.95,1.08,1.158644495081018,101,10,11,12,13,14,0,0.745317961516203,0.75,0.88,0.958644495081018,23a_tomar.wav,,a,,38,38,0,,,,,None,23,right,0,8.050033399980748,None,,,,,,,0,38,38,39,3736.472493500012,,,,,,,,,,,,,,,,,,,,,,,3744.539596699993,3744.53967920001,,,,3736.4612343999906,3736.465885566668,3736.472493500012,3736.472493500012,0.005959300004178658,0.018252300011226907,3738.3823600999895,3744.535546900006,right,0,8.050033399980748,None,None,,,,,,,,,,,,23_L2,001,2025-05-01_09h56.00.606,LangExperimentstress,2024.2.4,59.500044914996835,2025-05-01 09h56.19.687259 -0400,
sounds/19a_marcar.wav,CVC,Stressed,Match,present,num_1,0.0,0.2,0.8400000000000001,0.97,1.245718359375,1.273519140625,101,10,11,12,13,14,0,0.64,0.77,1.045718359375,1.073519140625,19a_marcar.wav,,a,,39,39,0,,,,,None,19,left,0,3.509188700001687,None,,,,,,,0,39,39,19,3744.5572106000036,,,,,,,,,,,,,,,,,,,,,,,3748.0739314999955,3748.0740240000014,,,,3744.546186099993,3744.5496543666563,3744.5572106000036,3744.5572106000036,0.006529899983434007,0.018520599987823516,3746.4663826999895,3748.0698539000005,left,0,3.509188700001687,None,None,,,,,,,,,,,,23_L2,001,2025-05-01_09h56.00.606,LangExperimentstress,2024.2.4,59.500044914996835,2025-05-01 09h56.19.687259 -0400,
,,,,,,,,,,,,,,,,,,,,,,,,,,,,,,,,,,,,,,,,,,,,,,,,,,,,,,,,,,,,,,,,,,,,,,,,,,,,,,,,,,,,,,,,,,,,,,,3748.07426709999,3748.0829824999964,3748.0829824999964,3751.868763800012,space,3.7743772999965586,None,23_L2,001,2025-05-01_09h56.00.606,LangExperimentstress,2024.2.4,59.500044914996835,2025-05-01 09h56.19.687259 -0400,
