sounds,syll,stress_unstress,suffix,present_past,corrAns,trigger_item,trigger_senonset,trigger_verbsonset,trigger_1_F0,trigger_suffix,trigger_2_F0,ID_item,ID_senonset,ID_verbonset,ID_1_F0,ID_suffix,ID_2_F0,ms_senonset,ms_verbonset,ms_1_F0,ms_suffix,ms_2_F0,file_name,sentence,cond,combo,thisN,thisTrialN,thisRepN,key_resp_4.keys,key_resp_4.corr,key_resp_4.rt,key_resp_4.duration,key_resp_5.keys,item_id,key_resp_2.keys,key_resp_2.corr,key_resp_2.rt,key_resp_2.duration,key_resp_5.rt,key_resp_5.duration,practice_trials.thisRepN,practice_trials.thisTrialN,practice_trials.thisN,practice_trials.thisIndex,experimental_trials.thisRepN,experimental_trials.thisTrialN,experimental_trials.thisN,experimental_trials.thisIndex,thisRow.t,notes,instructions.started,instr.started,key_resp.started,instructions.stopped,key_resp.keys,key_resp.rt,key_resp.duration,init_practice.started,init_practice.stopped,test_practice.started,test_sound_2.started,key_resp_4.started,polygon.started,serialPort_item_2.started,serialPort_item_2.stopped,test_sound_2.stopped,test_practice.stopped,practice_trials.key_resp_4.keys,practice_trials.key_resp_4.corr,practice_trials.key_resp_4.rt,practice_trials.key_resp_4.duration,takeabreak.started,takeabreak.stopped,practice_trials.key_resp_5.keys,init_trials.started,init_trials.stopped,test.started,test_sound.started,key_resp_2.started,polygon_2.started,serialPort_item.started,serialPort_item.stopped,test_sound.stopped,test.stopped,experimental_trials.key_resp_2.keys,experimental_trials.key_resp_2.corr,experimental_trials.key_resp_2.rt,experimental_trials.key_resp_2.duration,experimental_trials.key_resp_5.keys,text_3.started,key_resp_5.started,experimental_trials.key_resp_5.rt,experimental_trials.key_resp_5.duration,Thanks.started,text_2.started,key_resp_thanks.started,Thanks.stopped,key_resp_thanks.keys,key_resp_thanks.rt,key_resp_thanks.duration,participant,session,date,expName,psychopyVersion,frameRate,expStart,
,,,,,,,,,,,,,,,,,,,,,,,,,,,,,,,,,,,,,,,,,,,,,,,,,,,,0.0024821999832056463,0.018028599995886907,0.018028599995886907,4307.727649200009,space,4307.693585400004,None,,,,,,,,,,,,,,,,,,,,,,,,,,,,,,,,,,,,,,,,,,,,25_L2,001,2025-05-01_12h36.06.529,LangExperimentstress,2024.2.4,59.82274520037268,2025-05-01 12h36.23.229468 -0400,
,,,,,,,,,,,,,,,,,,,,,,,,,,,,,,,,,,,,,,,,,,,,,,,,,,,,,,,,,,,4307.727770700003,4307.728556099988,,,,,,,,,,,,,,,,,,,,,,,,,,,,,,,,,,,,,,,,,,25_L2,001,2025-05-01_12h36.06.529,LangExperimentstress,2024.2.4,59.82274520037268,2025-05-01 12h36.23.229468 -0400,
sounds/p2b_cortar.wav,CVC,Unstressed,Mismatch,present,num_1,0.0,0.205513,0.8629519999999999,0.984841,1.219715,1.27,101,20,21,22,23,24,0.005513,0.662952,0.784841,1.019715,1.07,p2b_cortar.wav,p2,b,p2b,0,0,0,right,0,4.110703700018348,None,None,,,,,,,,0,0,0,1,,,,,4307.761292100011,,,,,,,,,,,4307.749814799987,4307.766439799988,4307.761292100011,4307.761292100011,0.02127749999635853,0.03396140001132153,4310.01663150001,4311.885860999988,right,0,4.110703700018348,None,4311.88980189999,4311.889890199993,None,,,,,,,,,,,,,,,,,,,,,,,,,,,25_L2,001,2025-05-01_12h36.06.529,LangExperimentstress,2024.2.4,59.82274520037268,2025-05-01 12h36.23.229468 -0400,
sounds/p1a_saltar.wav,CVC,Stressed,Match,present,num_1,0.0,0.205513,0.8629519999999999,0.984841,1.219715,1.27,101,10,11,12,13,14,0.005513,0.662952,0.784841,1.019715,1.07,p1a_saltar.wav,p1,a,p1a,1,1,0,right,0,3.509044200007338,None,None,,,,,,,,0,1,1,0,,,,,4311.906559099996,,,,,,,,,,,4311.895385499985,4311.8999296666625,4311.906559099996,4311.906559099996,0.005506000015884638,0.017532600002596155,4314.149539700011,4315.419547199999,right,0,3.509044200007338,None,4315.4224931999925,4315.422584099986,None,,,,,,,,,,,,,,,,,,,,,,,,,,,25_L2,001,2025-05-01_12h36.06.529,LangExperimentstress,2024.2.4,59.82274520037268,2025-05-01 12h36.23.229468 -0400,
sounds/p4d_cortar.wav,CVC,Stressed,Mismatch,past,num_2,0.0,0.205513,0.8629519999999999,0.984841,1.219715,1.27,101,40,41,42,43,44,0.005513,0.662952,0.784841,1.019715,1.07,p4d_cortar.wav,p4,d,p4d,2,2,0,left,0,4.052501099999063,None,None,,,,,,,,0,2,2,3,,,,,4315.442468900001,,,,,,,,,,,4315.429400299996,4315.433609166652,4315.442468900001,4315.442468900001,0.006835299980593845,0.021050299983471632,4317.950208399998,4319.50237989999,left,0,4.052501099999063,None,4319.506035400002,4319.506106199988,None,,,,,,,,,,,,,,,,,,,,,,,,,,,25_L2,001,2025-05-01_12h36.06.529,LangExperimentstress,2024.2.4,59.82274520037268,2025-05-01 12h36.23.229468 -0400,
sounds/p3c_saltar.wav,CVC,Unstressed,Match,past,num_2,0.0,0.205513,0.8629519999999999,0.984841,1.219715,1.27,101,30,31,32,33,34,0.005513,0.662952,0.784841,1.019715,1.07,p3c_saltar.wav,p3,c,p3c,3,3,0,left,0,3.431539999990491,None,None,,,,,,,,0,3,3,2,,,,,4319.520413099992,,,,,,,,,,,4319.510345899995,4319.516793866675,4319.520413099992,4319.520413099992,0.004247900011250749,0.015113300003577024,4321.600476899999,4322.969187999988,left,0,3.431539999990491,None,4322.9734450000105,4322.973530299991,None,,,,,,,,,,,,,,,,,,,,,,,,,,,25_L2,001,2025-05-01_12h36.06.529,LangExperimentstress,2024.2.4,59.82274520037268,2025-05-01 12h36.23.229468 -0400,
,,,,,,,,,,,,,,,,,,,,,,,,,,,,,,,,,,,,,,,,,,,,,,,,,,,,4322.973743499984,4322.983725500002,4322.983725500002,4401.505139799992,space,78.51894759997958,None,,,,,,,,,,,,,,,,,,,,,,,,,,,,,,,,,,,,,,,,,,,,25_L2,001,2025-05-01_12h36.06.529,LangExperimentstress,2024.2.4,59.82274520037268,2025-05-01 12h36.23.229468 -0400,
,,,,,,,,,,,,,,,,,,,,,,,,,,,,,,,,,,,,,,,,,,,,,,,,,,,,,,,,,,,,,,,,,,,,,,,,,,,,4401.505246199988,4401.506373299984,,,,,,,,,,,,,,,,,,,,,,,,,25_L2,001,2025-05-01_12h36.06.529,LangExperimentstress,2024.2.4,59.82274520037268,2025-05-01 12h36.23.229468 -0400,
sounds/35b_secar.wav,CVC,Unstressed,Mismatch,present,num_1,0.0,0.2,0.8990044921875,1.025708658854166,1.179689416956018,1.20652606336805,101,20,21,22,23,24,0,0.6990044921875,0.825708658854166,0.979689416956018,1.00652606336805,35b_secar.wav,,b,,0,0,0,,,,,None,35,left,0,3.4815928999742027,None,,,,,,,0,0,0,5,4401.534199899994,,,,,,,,,,,,,,,,,,,,,,,4405.025436299999,4405.025530499988,,,,4401.524226300011,4401.535541733327,4401.534199899994,4401.534199899994,0.0178340999991633,0.028416000015567988,4403.685753500002,4405.021207499987,left,0,3.4815928999742027,None,None,,,,,,,,,,,,25_L2,001,2025-05-01_12h36.06.529,LangExperimentstress,2024.2.4,59.82274520037268,2025-05-01 12h36.23.229468 -0400,
sounds/23a_tomar.wav,CVC,Stressed,Match,present,num_1,0.0,0.2,0.9453179615162032,0.95,1.08,1.158644495081018,101,10,11,12,13,14,0,0.745317961516203,0.75,0.88,0.958644495081018,23a_tomar.wav,,a,,1,1,0,,,,,None,23,right,0,2.7731836000166368,None,,,,,,,0,1,1,39,4405.042786200007,,,,,,,,,,,,,,,,,,,,,,,4407.825720699999,4407.825865599996,,,,4405.030654300004,4405.0353985666625,4405.042786200007,4405.042786200007,0.005132399994181469,0.018445299996528774,4406.952594800008,4407.82167189999,right,0,2.7731836000166368,None,None,,,,,,,,,,,,25_L2,001,2025-05-01_12h36.06.529,LangExperimentstress,2024.2.4,59.82274520037268,2025-05-01 12h36.23.229468 -0400,
sounds/24d_mirar.wav,CVC,Stressed,Mismatch,past,num_2,0.0,0.2,0.71,0.8119545789930551,0.9389863642939812,0.9746780743634248,101,40,41,42,43,44,0,0.51,0.611954578993055,0.738986364293981,0.774678074363425,24d_mirar.wav,,d,,2,2,0,,,,,None,24,left,0,4.988958999980241,None,,,,,,,0,2,2,11,4407.843025899987,,,,,,,,,,,,,,,,,,,,,,,4412.841298399988,4412.841378599987,,,,4407.831124899996,4407.83564436666,4407.843025899987,4407.843025899987,0.005260200006887317,0.018144100002245978,4409.552301799995,4412.83815180001,left,0,4.988958999980241,None,None,,,,,,,,,,,,25_L2,001,2025-05-01_12h36.06.529,LangExperimentstress,2024.2.4,59.82274520037268,2025-05-01 12h36.23.229468 -0400,
sounds/40c_gastar.wav,CVC,Unstressed,Match,past,num_2,0.0,0.2,0.8300000000000001,0.8400000000000001,1.163436328125,1.183149609375,101,30,31,32,33,34,0,0.63,0.64,0.963436328125,0.983149609375,40c_gastar.wav,,c,,3,3,0,,,,,None,40,left,0,3.854495300009148,None,,,,,,,0,3,3,0,4412.85716449999,,,,,,,,,,,,,,,,,,,,,,,4416.726359099994,4416.72648479999,,,,4412.846388000005,4412.8524362666685,4412.85716449999,4412.85716449999,0.0050165999855380505,0.01660869998158887,4414.9688696000085,4416.722092399985,left,0,3.854495300009148,None,None,,,,,,,,,,,,25_L2,001,2025-05-01_12h36.06.529,LangExperimentstress,2024.2.4,59.82274520037268,2025-05-01 12h36.23.229468 -0400,
sounds/08d_filtrar.wav,CVC,Stressed,Mismatch,past,num_2,0.0,0.2,0.7526856695589441,0.87808115762362,1.118901843962886,1.172598812485867,101,40,41,42,43,44,0,0.552685669558944,0.67808115762362,0.918901843962886,0.972598812485867,08d_filtrar.wav,,d,,4,4,0,,,,,None,8,right,0,5.631945700006327,None,,,,,,,0,4,4,15,4416.7428122999845,,,,,,,,,,,,,,,,,,,,,,,4422.392749199993,4422.392833199992,,,,4416.731388799992,4416.7361991666585,4416.7428122999845,4416.7428122999845,0.004908799979602918,0.017483899981016293,4418.502541599999,4422.3885419,right,0,5.631945700006327,None,None,,,,,,,,,,,,25_L2,001,2025-05-01_12h36.06.529,LangExperimentstress,2024.2.4,59.82274520037268,2025-05-01 12h36.23.229468 -0400,
sounds/07c_tumbar.wav,CVC,Unstressed,Match,past,num_2,0.0,0.2,0.9084024930273432,0.9247360728973012,1.143289673625005,1.154847989033482,101,30,31,32,33,34,0,0.708402493027343,0.724736072897301,0.943289673625005,0.954847989033482,07c_tumbar.wav,,c,,5,5,0,,,,,None,7,left,0,4.0798157999815885,None,,,,,,,0,5,5,6,4422.407697899995,,,,,,,,,,,,,,,,,,,,,,,4426.508950499992,4426.50904569999,,,,4422.397422799986,4422.402870766677,4422.407697899995,4422.407697899995,0.004599499981850386,0.015666999999666587,4424.3695548000105,4426.504874700011,left,0,4.0798157999815885,None,None,,,,,,,,,,,,25_L2,001,2025-05-01_12h36.06.529,LangExperimentstress,2024.2.4,59.82274520037268,2025-05-01 12h36.23.229468 -0400,
sounds/33b_culpar.wav,CVC,Unstressed,Mismatch,present,num_1,0.0,0.2,0.8606178431336959,0.869103678029107,1.109891641372144,1.131540467434179,101,20,21,22,23,24,0,0.660617843133696,0.669103678029107,0.909891641372144,0.931540467434179,33b_culpar.wav,,b,,6,6,0,,,,,None,33,right,0,2.9528301999962423,None,,,,,,,0,6,6,35,4426.525809299987,,,,,,,,,,,,,,,,,,,,,,,4429.492732499988,4429.4928766000085,,,,4426.514534599992,4426.519379966663,4426.525809299987,4426.525809299987,0.005534399999305606,0.017913000017870218,4428.702706000011,4429.488724099996,right,0,2.9528301999962423,None,None,,,,,,,,,,,,25_L2,001,2025-05-01_12h36.06.529,LangExperimentstress,2024.2.4,59.82274520037268,2025-05-01 12h36.23.229468 -0400,
sounds/19a_marcar.wav,CVC,Stressed,Match,present,num_1,0.0,0.2,0.8400000000000001,0.97,1.245718359375,1.273519140625,101,10,11,12,13,14,0,0.64,0.77,1.045718359375,1.073519140625,19a_marcar.wav,,a,,7,7,0,,,,,None,19,right,0,3.71548030001577,None,,,,,,,0,7,7,19,4429.507568800007,,,,,,,,,,,,,,,,,,,,,,,4433.242685200006,4433.242773999984,,,,4429.497577500006,4429.502674766674,4429.507568800007,4429.507568800007,0.004677300021285191,0.0154235000081826,4431.418990000006,4433.238603700011,right,0,3.71548030001577,None,None,,,,,,,,,,,,25_L2,001,2025-05-01_12h36.06.529,LangExperimentstress,2024.2.4,59.82274520037268,2025-05-01 12h36.23.229468 -0400,
sounds/20c_cubrir.wav,CVC,Unstressed,Match,past,num_2,0.0,0.2,0.980138641742621,1.01,1.192436112212021,1.28412143493692,101,30,31,32,33,34,0,0.780138641742621,0.81,0.992436112212021,1.08412143493692,20c_cubrir.wav,,c,,8,8,0,,,,,None,20,left,0,3.4133610999851953,None,,,,,,,0,8,8,31,4433.257536599995,,,,,,,,,,,,,,,,,,,,,,,4436.692767500004,4436.692859700008,,,,4433.247866099991,4433.252782866653,4433.257536599995,4433.257536599995,0.005090599996037781,0.01569439997547306,4435.402662699984,4436.688487200008,left,0,3.4133610999851953,None,None,,,,,,,,,,,,25_L2,001,2025-05-01_12h36.06.529,LangExperimentstress,2024.2.4,59.82274520037268,2025-05-01 12h36.23.229468 -0400,
sounds/39b_manchar.wav,CVC,Unstressed,Mismatch,present,num_1,0.0,0.2,0.81,0.91203755787037,1.140584317129629,1.2139708912037,101,20,21,22,23,24,0,0.61,0.71203755787037,0.940584317129629,1.0139708912037,39b_manchar.wav,,b,,9,9,0,,,,,space,39,right,0,2.7072293999954127,None,11.554934999992838,None,,,,,0,9,9,7,4436.708768699988,,,,,,,,,,,,,,,,,,,,,,,4439.425736200006,4451.0064357999945,,,,4436.698335599998,4436.703046166662,4436.708768699988,4436.708768699988,0.005486000009113923,0.01674649998312816,4438.96980739999,4439.421900799993,right,0,2.7072293999954127,None,space,4439.436411400005,4439.436411400005,11.554934999992838,None,,,,,,,,25_L2,001,2025-05-01_12h36.06.529,LangExperimentstress,2024.2.4,59.82274520037268,2025-05-01 12h36.23.229468 -0400,
sounds/38b_pagar.wav,CVC,Unstressed,Mismatch,present,num_1,0.0,0.2,1.166737304687499,1.185271158854166,1.29521061197916,1.4055712890624898,101,20,21,22,23,24,0,0.966737304687499,0.985271158854166,1.09521061197916,1.20557128906249,38b_pagar.wav,,b,,10,10,0,,,,,None,38,right,0,2.631972400005907,None,,,,,,,0,10,10,17,4451.023445800005,,,,,,,,,,,,,,,,,,,,,,,4453.676977099996,4453.6770732,,,,4451.0119727999845,4451.020483366654,4451.023445800005,4451.023445800005,0.005503599997609854,0.017810899997130036,4453.2710539999825,4453.672627499996,right,0,2.631972400005907,None,None,,,,,,,,,,,,25_L2,001,2025-05-01_12h36.06.529,LangExperimentstress,2024.2.4,59.82274520037268,2025-05-01 12h36.23.229468 -0400,
sounds/37b_pasar.wav,CVC,Unstressed,Mismatch,present,num_1,0.0,0.2,1.033132486979166,1.052087565104166,1.159499674479166,1.27702115885416,101,20,21,22,23,24,0,0.833132486979166,0.852087565104166,0.959499674479166,1.07702115885416,37b_pasar.wav,,b,,11,11,0,,,,,None,37,right,0,2.4263844000233803,None,,,,,,,0,11,11,23,4453.693293299992,,,,,,,,,,,,,,,,,,,,,,,4456.1268890000065,4456.126973999984,,,,4453.682234799984,4453.686967666672,4453.693293299992,4453.693293299992,0.005172399978619069,0.017341800004942343,4455.803177499998,4456.122652799997,right,0,2.4263844000233803,None,None,,,,,,,,,,,,25_L2,001,2025-05-01_12h36.06.529,LangExperimentstress,2024.2.4,59.82274520037268,2025-05-01 12h36.23.229468 -0400,
sounds/25b_ganar.wav,CVC,Unstressed,Mismatch,present,num_1,0.0,0.2,1.152097938368055,1.15990068760488,1.28904165650454,1.37272500435153,101,20,21,22,23,24,0,0.952097938368055,0.95990068760488,1.08904165650454,1.17272500435153,25b_ganar.wav,,b,,12,12,0,,,,,None,25,right,0,3.1911394000053406,None,,,,,,,0,12,12,8,4456.144615099998,,,,,,,,,,,,,,,,,,,,,,,4459.342694999999,4459.342774799996,,,,4456.1327555000025,4456.136689466661,4456.144615099998,4456.144615099998,0.005810000002384186,0.018809400004101917,4458.486529899994,4459.339355000004,right,0,3.1911394000053406,None,None,,,,,,,,,,,,25_L2,001,2025-05-01_12h36.06.529,LangExperimentstress,2024.2.4,59.82274520037268,2025-05-01 12h36.23.229468 -0400,
sounds/09c_cargar.wav,CVC,Unstressed,Match,past,num_2,0.0,0.2,0.81286744068287,0.8382251229745361,1.032634020543981,1.090594437210648,101,30,31,32,33,34,0,0.61286744068287,0.638225122974536,0.832634020543981,0.890594437210648,09c_cargar.wav,,c,,13,13,0,,,,,None,9,left,0,2.408691499993438,None,,,,,,,0,13,13,28,4459.35929339999,,,,,,,,,,,,,,,,,,,,,,,4461.777575399989,4461.7776687000005,,,,4459.347807299986,4459.353526066672,4459.35929339999,4459.35929339999,0.005055399989942089,0.017696900002192706,4461.3035562000005,4461.773404699983,left,0,2.408691499993438,None,None,,,,,,,,,,,,25_L2,001,2025-05-01_12h36.06.529,LangExperimentstress,2024.2.4,59.82274520037268,2025-05-01 12h36.23.229468 -0400,
sounds/14b_borrar.wav,CVC,Unstressed,Mismatch,present,num_1,0.0,0.2,0.72,0.770187630208333,0.851961241319444,0.964399956597222,101,20,21,22,23,24,0,0.52,0.570187630208333,0.651961241319444,0.764399956597222,14b_borrar.wav,,b,,14,14,0,,,,,None,14,right,0,2.790450900007272,None,,,,,,,0,14,14,20,4461.793379399984,,,,,,,,,,,,,,,,,,,,,,,4464.593250400008,4464.593343299988,,,,4461.7830141999875,4461.787447366663,4461.793379399984,4461.793379399984,0.0053684999875258654,0.016739699989557266,4463.753582500009,4464.589550400007,right,0,2.790450900007272,None,None,,,,,,,,,,,,25_L2,001,2025-05-01_12h36.06.529,LangExperimentstress,2024.2.4,59.82274520037268,2025-05-01 12h36.23.229468 -0400,
sounds/34c_formar.wav,CVC,Unstressed,Match,past,num_2,0.0,0.2,0.876373676215277,0.992687651909722,1.14,1.26319767795138,101,30,31,32,33,34,0,0.676373676215277,0.792687651909722,0.94,1.06319767795138,34c_formar.wav,,c,,15,15,0,,,,,None,34,left,0,3.6058059000060894,None,,,,,,,0,15,15,2,4464.609850499983,,,,,,,,,,,,,,,,,,,,,,,4468.22721740001,4468.227309000009,,,,4464.599140400009,4464.603582166663,4464.609850499983,4464.609850499983,0.005816400022013113,0.01750830002129078,4466.853611500002,4468.222955200006,left,0,3.6058059000060894,None,None,,,,,,,,,,,,25_L2,001,2025-05-01_12h36.06.529,LangExperimentstress,2024.2.4,59.82274520037268,2025-05-01 12h36.23.229468 -0400,
sounds/03b_limpiar.wav,CVC,Unstressed,Mismatch,present,num_1,0.0,0.2,0.8500000000000001,0.932367621527777,1.26878515625,1.35808463541666,101,20,21,22,23,24,0,0.65,0.732367621527777,1.06878515625,1.15808463541666,03b_limpiar.wav,,b,,16,16,0,,,,,None,3,right,0,4.217862699995749,None,,,,,,,0,16,16,4,4468.245415599988,,,,,,,,,,,,,,,,,,,,,,,4472.476596499997,4472.476675999991,,,,4468.233230999991,4468.236922466665,4468.245415599988,4468.245415599988,0.0059470000269357115,0.01930970000103116,4470.38675569999,4472.472789399995,right,0,4.217862699995749,None,None,,,,,,,,,,,,25_L2,001,2025-05-01_12h36.06.529,LangExperimentstress,2024.2.4,59.82274520037268,2025-05-01 12h36.23.229468 -0400,
sounds/17d_tragar.wav,CVC,Stressed,Mismatch,past,num_2,0.0,0.2,1.070609360532407,1.117973654513888,1.30915316840277,1.35458539534397,101,40,41,42,43,44,0,0.870609360532407,0.917973654513888,1.10915316840277,1.15458539534397,17d_tragar.wav,,d,,17,17,0,,,,,None,17,left,0,4.379213800013531,None,,,,,,,0,17,17,26,4472.49177980001,,,,,,,,,,,,,,,,,,,,,,,4476.877791400009,4476.877886500006,,,,4472.481804499985,4472.48716256666,4472.49177980001,4472.49177980001,0.005128300021169707,0.016015400004107505,4474.787296900002,4476.873564599984,left,0,4.379213800013531,None,None,,,,,,,,,,,,25_L2,001,2025-05-01_12h36.06.529,LangExperimentstress,2024.2.4,59.82274520037268,2025-05-01 12h36.23.229468 -0400,
sounds/13c_montar.wav,CVC,Unstressed,Match,past,num_2,0.0,0.2,0.8800000000000001,0.98,1.24543012152777,1.2594709201388798,101,30,31,32,33,34,0,0.68,0.78,1.04543012152777,1.05947092013888,13c_montar.wav,,c,,18,18,0,,,,,None,13,left,0,3.0815154000010807,None,,,,,,,0,18,18,33,4476.8941872,,,,,,,,,,,,,,,,,,,,,,,4479.993993499986,4479.994081899989,,,,4476.883665600006,4476.887324466665,4476.8941872,4476.8941872,0.005791100003989413,0.017325499997241423,4479.203946900001,4479.989834599983,left,0,3.0815154000010807,None,None,,,,,,,,,,,,25_L2,001,2025-05-01_12h36.06.529,LangExperimentstress,2024.2.4,59.82274520037268,2025-05-01 12h36.23.229468 -0400,
sounds/12a_matar.wav,CVC,Stressed,Match,present,num_1,0.0,0.2,0.8400000000000001,0.96,1.17307472511574,1.186647497106481,101,10,11,12,13,14,0,0.64,0.76,0.97307472511574,0.986647497106481,12a_matar.wav,,a,,19,19,0,,,,,space,12,right,0,3.0359555000031833,None,17.313277999986894,None,,,,,0,19,19,25,4480.011999000009,,,,,,,,,,,,,,,,,,,,,,,4483.060683899996,4500.390323200001,,,,4479.999829899985,4480.00399026665,4480.011999000009,4480.011999000009,0.005770999996457249,0.019138999981805682,4482.203804299992,4483.056563899998,right,0,3.0359555000031833,None,space,4483.070922099985,4483.070922099985,17.313277999986894,None,,,,,,,,25_L2,001,2025-05-01_12h36.06.529,LangExperimentstress,2024.2.4,59.82274520037268,2025-05-01 12h36.23.229468 -0400,
sounds/21a_mezclar.wav,CVC,Stressed,Match,present,num_1,0.0,0.2,0.78,0.9121902777777772,1.20214212962962,1.27,101,10,11,12,13,14,0,0.58,0.712190277777777,1.00214212962962,1.07,21a_mezclar.wav,,a,,20,20,0,,,,,None,21,right,0,2.977710200008005,None,,,,,,,0,20,20,27,4500.406575600005,,,,,,,,,,,,,,,,,,,,,,,4503.394725799997,4503.3948649000085,,,,4500.39577480001,4500.404403366676,4500.406575600005,4500.406575600005,0.005415699997683987,0.017101300007198006,4502.437610599998,4503.390684299986,right,0,2.977710200008005,None,None,,,,,,,,,,,,25_L2,001,2025-05-01_12h36.06.529,LangExperimentstress,2024.2.4,59.82274520037268,2025-05-01 12h36.23.229468 -0400,
sounds/11a_pegar.wav,CVC,Stressed,Match,present,num_1,0.0,0.2,0.8182808977343741,0.831294515585661,0.98,1.012063288108519,101,10,11,12,13,14,0,0.618280897734374,0.631294515585661,0.78,0.812063288108519,11a_pegar.wav,,a,,21,21,0,,,,,None,11,right,0,3.0687341000011656,None,,,,,,,0,21,21,3,4503.410929500009,,,,,,,,,,,,,,,,,,,,,,,4506.493804099999,4506.4938795999915,,,,4503.399876399984,4503.404579066675,4503.410929500009,4503.410929500009,0.005009999993490055,0.017046699998900294,4505.3546260999865,4506.490114799992,right,0,3.0687341000011656,None,None,,,,,,,,,,,,25_L2,001,2025-05-01_12h36.06.529,LangExperimentstress,2024.2.4,59.82274520037268,2025-05-01 12h36.23.229468 -0400,
sounds/18b_cumplir.wav,CVC,Unstressed,Mismatch,present,num_1,0.0,0.2,1.2408027271412,1.25568597366898,1.46256310040509,1.54144430700231,101,20,21,22,23,24,0,1.0408027271412,1.05568597366898,1.26256310040509,1.34144430700231,18b_cumplir.wav,,b,,22,22,0,,,,,None,18,right,0,5.426719100010814,None,,,,,,,0,22,22,29,4506.508657900005,,,,,,,,,,,,,,,,,,,,,,,4511.944852599991,4511.944937299995,,,,4506.498313199991,4506.50461706665,4506.508657900005,4506.508657900005,0.004445800004759803,0.015568000002531335,4508.687958499999,4511.940800399985,right,0,5.426719100010814,None,None,,,,,,,,,,,,25_L2,001,2025-05-01_12h36.06.529,LangExperimentstress,2024.2.4,59.82274520037268,2025-05-01 12h36.23.229468 -0400,
sounds/04c_plantar.wav,CVC,Unstressed,Match,past,num_2,0.0,0.2,0.862877574458911,0.9343518689653568,1.20493812332404,1.21897569287037,101,30,31,32,33,34,0,0.662877574458911,0.734351868965357,1.00493812332404,1.01897569287037,04c_plantar.wav,,c,,23,23,0,,,,,None,4,left,0,2.3915666000102647,None,,,,,,,0,23,23,9,4511.960478499997,,,,,,,,,,,,,,,,,,,,,,,4514.361856400006,4514.361947900004,,,,4511.950212399999,4511.954808466664,4511.960478499997,4511.960478499997,0.005284599988954142,0.016499699995620176,4514.004944199987,4514.357942300005,left,0,2.3915666000102647,None,None,,,,,,,,,,,,25_L2,001,2025-05-01_12h36.06.529,LangExperimentstress,2024.2.4,59.82274520037268,2025-05-01 12h36.23.229468 -0400,
sounds/16a_llevar.wav,CVC,Stressed,Match,present,num_1,0.0,0.2,0.929084516317274,0.964936524692279,1.08,1.131864014418682,101,10,11,12,13,14,0,0.729084516317274,0.764936524692279,0.88,0.931864014418682,16a_llevar.wav,,a,,24,24,0,,,,,None,16,right,0,2.2693964000209235,None,,,,,,,0,24,24,21,4514.379027099989,,,,,,,,,,,,,,,,,,,,,,,4516.661227100005,4516.661317999999,,,,4514.366823499993,4514.371492766662,4514.379027099989,4514.379027099989,0.004882100009126589,0.018353000021306798,4516.287885500002,4516.657438800001,right,0,2.2693964000209235,None,None,,,,,,,,,,,,25_L2,001,2025-05-01_12h36.06.529,LangExperimentstress,2024.2.4,59.82274520037268,2025-05-01 12h36.23.229468 -0400,
sounds/15b_partir.wav,CVC,Unstressed,Mismatch,present,num_1,0.0,0.2,0.826865400752314,0.842973894883327,1.1042888772729471,1.120815958498066,101,20,21,22,23,24,0,0.626865400752314,0.642973894883327,0.904288877272947,0.920815958498066,15b_partir.wav,,b,,25,25,0,,,,,None,15,left,0,9.27365099999588,None,,,,,,,0,25,25,22,4516.677175699995,,,,,,,,,,,,,,,,,,,,,,,4525.961381100002,4525.961499099998,,,,4516.666380699986,4516.671431666651,4516.677175699995,4516.677175699995,0.0050601000257302076,0.016727700014598668,4518.738086800004,4525.957361899986,left,0,9.27365099999588,None,None,,,,,,,,,,,,25_L2,001,2025-05-01_12h36.06.529,LangExperimentstress,2024.2.4,59.82274520037268,2025-05-01 12h36.23.229468 -0400,
sounds/28d_parar.wav,CVC,Stressed,Mismatch,past,num_2,0.0,0.2,0.8458860026041659,0.862313736979166,1.018194683159722,1.032797113715277,101,40,41,42,43,44,0,0.645886002604166,0.662313736979166,0.818194683159722,0.832797113715277,28d_parar.wav,,d,,26,26,0,,,,,None,28,left,0,3.48617610000656,None,,,,,,,0,26,26,18,4525.977909499983,,,,,,,,,,,,,,,,,,,,,,,4529.478100599983,4529.478184000007,,,,4525.966595000005,4525.971452066649,4525.977909499983,4525.977909499983,0.005095900007290766,0.017346100008580834,4527.888506099989,4529.474240999989,left,0,3.48617610000656,None,None,,,,,,,,,,,,25_L2,001,2025-05-01_12h36.06.529,LangExperimentstress,2024.2.4,59.82274520037268,2025-05-01 12h36.23.229468 -0400,
sounds/26a_bajar.wav,CVC,Stressed,Match,present,num_1,0.0,0.2,0.77,0.8999999999999999,1.03,1.171181705729166,101,10,11,12,13,14,0,0.57,0.7,0.83,0.971181705729166,26a_bajar.wav,,a,,27,27,0,,,,,None,26,right,0,2.5223261999781244,None,,,,,,,0,27,27,13,4529.492748799996,,,,,,,,,,,,,,,,,,,,,,,4532.028237599996,4532.028332899994,,,,4529.483067199995,4529.488524966673,4529.492748799996,4529.492748799996,0.004883899993728846,0.015361799974925816,4531.57154579999,4532.02418030001,right,0,2.5223261999781244,None,None,,,,,,,,,,,,25_L2,001,2025-05-01_12h36.06.529,LangExperimentstress,2024.2.4,59.82274520037268,2025-05-01 12h36.23.229468 -0400,
sounds/06d_soplar.wav,CVC,Stressed,Mismatch,past,num_2,0.0,0.2,0.761291666666666,0.8899999999999999,1.102139687590422,1.166665581687644,101,40,41,42,43,44,0,0.561291666666666,0.69,0.902139687590422,0.966665581687644,06d_soplar.wav,,d,,28,28,0,,,,,None,6,left,0,3.4816140000184532,None,,,,,,,0,28,28,16,4532.046045900002,,,,,,,,,,,,,,,,,,,,,,,4535.54510019999,4535.545190200006,,,,4532.033661900001,4532.038296866671,4532.046045900002,4532.046045900002,0.0053459000191651285,0.018864300014683977,4533.938346100011,4535.541569399997,left,0,3.4816140000184532,None,None,,,,,,,,,,,,25_L2,001,2025-05-01_12h36.06.529,LangExperimentstress,2024.2.4,59.82274520037268,2025-05-01 12h36.23.229468 -0400,
sounds/05a_fumar.wav,CVC,Stressed,Match,present,num_1,0.0,0.2,1.15,1.36712555700231,1.48,1.56308830295138,101,10,11,12,13,14,0,0.95,1.16712555700231,1.28,1.36308830295138,05a_fumar.wav,,a,,29,29,0,,,,,space,5,right,0,2.856066299980739,None,11.961060900008306,None,,,,,0,29,29,38,4535.560199300002,,,,,,,,,,,,,,,,,,,,,,,4538.428507200006,4550.407711300009,,,,4535.550598300004,4535.555349166654,4535.560199300002,4535.560199300002,0.005412800004705787,0.015821200009668246,4537.921553199994,4538.425347199984,right,0,2.856066299980739,None,space,4538.438510799984,4538.438510799984,11.961060900008306,None,,,,,,,,25_L2,001,2025-05-01_12h36.06.529,LangExperimentstress,2024.2.4,59.82274520037268,2025-05-01 12h36.23.229468 -0400,
sounds/29a_pesar.wav,CVC,Stressed,Match,present,num_1,0.0,0.2,0.91328417532552,0.925531286730473,1.03,1.150619522602117,101,10,11,12,13,14,0,0.71328417532552,0.725531286730473,0.83,0.950619522602117,29a_pesar.wav,,a,,30,30,0,,,,,None,29,right,0,2.2466866000031587,None,,,,,,,0,30,30,32,4550.424579299986,,,,,,,,,,,,,,,,,,,,,,,4552.679393099999,4552.679480299994,,,,4550.412688000011,4550.4220967666515,4550.424579299986,4550.424579299986,0.004941799998050556,0.01774949999526143,4552.33900420001,4552.675364099996,right,0,2.2466866000031587,None,None,,,,,,,,,,,,25_L2,001,2025-05-01_12h36.06.529,LangExperimentstress,2024.2.4,59.82274520037268,2025-05-01 12h36.23.229468 -0400,
sounds/22d_dejar.wav,CVC,Stressed,Mismatch,past,num_2,0.0,0.2,0.8500000000000001,1.02,1.152543366608796,1.28794346788194,101,40,41,42,43,44,0,0.65,0.82,0.952543366608796,1.08794346788194,22d_dejar.wav,,d,,31,31,0,,,,,None,22,left,0,2.2797585999942385,None,,,,,,,0,31,31,14,4552.695827599993,,,,,,,,,,,,,,,,,,,,,,,4554.994512400008,4554.994603200001,,,,4552.684602199995,4552.689186266656,4552.695827599993,4552.695827599993,0.005132699996465817,0.017268399999011308,4554.739647999988,4554.991242999997,left,0,2.2797585999942385,None,None,,,,,,,,,,,,25_L2,001,2025-05-01_12h36.06.529,LangExperimentstress,2024.2.4,59.82274520037268,2025-05-01 12h36.23.229468 -0400,
sounds/30a_fundar.wav,CVC,Stressed,Match,present,num_1,0.0,0.2,0.77,0.91,1.112685546875,1.12,101,10,11,12,13,14,0,0.57,0.71,0.912685546875,0.92,30a_fundar.wav,,a,,32,32,0,,,,,None,30,right,0,2.516614500025753,None,,,,,,,0,32,32,36,4555.01121289999,,,,,,,,,,,,,,,,,,,,,,,4557.545576400007,4557.545662599994,,,,4555.000391899986,4555.005544766671,4555.01121289999,4555.01121289999,0.005789999995613471,0.017648200009716675,4557.1554684999865,4557.541437200009,right,0,2.516614500025753,None,None,,,,,,,,,,,,25_L2,001,2025-05-01_12h36.06.529,LangExperimentstress,2024.2.4,59.82274520037268,2025-05-01 12h36.23.229468 -0400,
sounds/36c_bordar.wav,CVC,Unstressed,Match,past,num_2,0.0,0.2,1.0,1.078468243634259,1.3288624855324,1.3414992042824,101,30,31,32,33,34,0,0.8,0.878468243634259,1.1288624855324,1.1414992042824,36c_bordar.wav,,c,,33,33,0,,,,,None,36,left,0,2.534045200009132,None,,,,,,,0,33,33,1,4557.562015200005,,,,,,,,,,,,,,,,,,,,,,,4560.112070600007,4560.112149799999,,,,4557.551144500001,4557.555567866661,4557.562015200005,4557.562015200005,0.005493000004207715,0.017307600006461143,4559.839055299992,4560.1081437999965,left,0,2.534045200009132,None,None,,,,,,,,,,,,25_L2,001,2025-05-01_12h36.06.529,LangExperimentstress,2024.2.4,59.82274520037268,2025-05-01 12h36.23.229468 -0400,
sounds/02c_buscar.wav,CVC,Unstressed,Match,past,num_2,0.0,0.2,0.8700000000000001,1.07,1.26,1.40703946035879,101,30,31,32,33,34,0,0.67,0.87,1.06,1.20703946035879,02c_buscar.wav,,c,,34,34,0,,,,,None,2,left,0,2.422761299996637,None,,,,,,,0,34,34,34,4560.128903100005,,,,,,,,,,,,,,,,,,,,,,,4562.562325700012,4562.56241720001,,,,4560.11714290001,4560.122475066662,4560.128903100005,4560.128903100005,0.00501380002242513,0.01796420000027865,4562.255745800008,4562.558176699997,left,0,2.422761299996637,None,None,,,,,,,,,,,,25_L2,001,2025-05-01_12h36.06.529,LangExperimentstress,2024.2.4,59.82274520037268,2025-05-01 12h36.23.229468 -0400,
sounds/27c_tirar.wav,CVC,Unstressed,Match,past,num_2,0.0,0.2,0.8119442057291659,0.8307495153356481,0.9885306495949072,0.998621303530092,101,30,31,32,33,34,0,0.611944205729166,0.630749515335648,0.788530649594907,0.798621303530092,27c_tirar.wav,,c,,35,35,0,,,,,None,27,left,0,2.379418299999088,None,,,,,,,0,35,35,10,4562.579323499987,,,,,,,,,,,,,,,,,,,,,,,4564.978875700006,4564.978969399992,,,,4562.568024599983,4562.572351966668,4562.579323499987,4562.579323499987,0.005626500002108514,0.01784590000170283,4564.589252400008,4564.975312499999,left,0,2.379418299999088,None,None,,,,,,,,,,,,25_L2,001,2025-05-01_12h36.06.529,LangExperimentstress,2024.2.4,59.82274520037268,2025-05-01 12h36.23.229468 -0400,
sounds/10d_vender.wav,CVC,Stressed,Mismatch,past,num_2,0.0,0.2,0.832830209056713,0.8775468199411529,1.109501330306288,1.158928471023364,101,40,41,42,43,44,0,0.632830209056713,0.677546819941153,0.909501330306288,0.958928471023364,10d_vender.wav,,d,,36,36,0,,,,,None,10,left,0,3.035793899995042,None,,,,,,,0,36,36,12,4564.994957899995,,,,,,,,,,,,,,,,,,,,,,,4568.044136199984,4568.04422879999,,,,4564.9838885999925,4564.989274466676,4564.994957899995,4564.994957899995,0.0049300999962724745,0.016834799986099824,4566.905851299991,4568.04144619999,left,0,3.035793899995042,None,None,,,,,,,,,,,,25_L2,001,2025-05-01_12h36.06.529,LangExperimentstress,2024.2.4,59.82274520037268,2025-05-01 12h36.23.229468 -0400,
sounds/32d_pulsar.wav,CVC,Stressed,Mismatch,past,num_2,0.0,0.2,0.796440212673611,0.8294641710069439,0.99,1.097783832465277,101,40,41,42,43,44,0,0.596440212673611,0.629464171006944,0.79,0.897783832465277,32d_pulsar.wav,,d,,37,37,0,,,,,None,32,left,0,3.4431034000008367,None,,,,,,,0,37,37,24,4568.059793099994,,,,,,,,,,,,,,,,,,,,,,,4571.512553200009,4571.512634199986,,,,4568.04923460001,4568.055714666672,4568.059793099994,4568.059793099994,0.005007600004319102,0.01644440001109615,4569.872693799989,4571.508480999997,left,0,3.4431034000008367,None,None,,,,,,,,,,,,25_L2,001,2025-05-01_12h36.06.529,LangExperimentstress,2024.2.4,59.82274520037268,2025-05-01 12h36.23.229468 -0400,
sounds/31d_tocar.wav,CVC,Stressed,Mismatch,past,num_2,0.0,0.2,0.8493931756807,0.8650112062639721,1.006860547391531,1.049162047334928,101,40,41,42,43,44,0,0.6493931756807,0.665011206263972,0.806860547391531,0.849162047334928,31d_tocar.wav,,d,,38,38,0,,,,,None,31,left,0,2.3589133999776095,None,,,,,,,0,38,38,30,4571.528334300005,,,,,,,,,,,,,,,,,,,,,,,4573.896030500007,4573.896116799995,,,,4571.5173659999855,4571.522703266677,4571.528334300005,4571.528334300005,0.004754800000227988,0.016852900007506832,4573.439636800002,4573.892192800005,left,0,2.3589133999776095,None,None,,,,,,,,,,,,25_L2,001,2025-05-01_12h36.06.529,LangExperimentstress,2024.2.4,59.82274520037268,2025-05-01 12h36.23.229468 -0400,
sounds/01d_salvar.wav,CVC,Stressed,Mismatch,past,num_2,0.0,0.2,0.8500000000000001,0.996069502314814,1.23,1.29,101,40,41,42,43,44,0,0.65,0.796069502314814,1.03,1.09,01d_salvar.wav,,d,,39,39,0,,,,,None,1,left,0,2.7355734999873675,None,,,,,,,0,39,39,37,4573.912380399997,,,,,,,,,,,,,,,,,,,,,,,4576.663320699998,4576.663419899996,,,,4573.9011085999955,4573.906365566658,4573.912380399997,4573.912380399997,0.005000199977075681,0.017151999985799193,4575.972794300003,4576.658989999996,left,0,2.7355734999873675,None,None,,,,,,,,,,,,25_L2,001,2025-05-01_12h36.06.529,LangExperimentstress,2024.2.4,59.82274520037268,2025-05-01 12h36.23.229468 -0400,
,,,,,,,,,,,,,,,,,,,,,,,,,,,,,,,,,,,,,,,,,,,,,,,,,,,,,,,,,,,,,,,,,,,,,,,,,,,,,,,,,,,,,,,,,,,,,,,4576.663673500007,4576.672872700001,4576.672872700001,4585.725200999994,space,9.045557900011772,None,25_L2,001,2025-05-01_12h36.06.529,LangExperimentstress,2024.2.4,59.82274520037268,2025-05-01 12h36.23.229468 -0400,
