sounds,syll,stress_unstress,suffix,present_past,corrAns,trigger_item,trigger_senonset,trigger_verbsonset,trigger_1_F0,trigger_suffix,trigger_2_F0,ID_item,ID_senonset,ID_verbonset,ID_1_F0,ID_suffix,ID_2_F0,ms_senonset,ms_verbonset,ms_1_F0,ms_suffix,ms_2_F0,file_name,sentence,cond,combo,thisN,thisTrialN,thisRepN,key_resp_4.keys,key_resp_4.corr,key_resp_4.rt,key_resp_4.duration,key_resp_5.keys,item_id,key_resp_2.keys,key_resp_2.corr,key_resp_2.rt,key_resp_2.duration,key_resp_5.rt,key_resp_5.duration,practice_trials.thisRepN,practice_trials.thisTrialN,practice_trials.thisN,practice_trials.thisIndex,experimental_trials.thisRepN,experimental_trials.thisTrialN,experimental_trials.thisN,experimental_trials.thisIndex,thisRow.t,notes,instructions.started,instr.started,key_resp.started,instructions.stopped,key_resp.keys,key_resp.rt,key_resp.duration,init_practice.started,init_practice.stopped,test_practice.started,test_sound_2.started,key_resp_4.started,polygon.started,serialPort_item_2.started,serialPort_item_2.stopped,test_sound_2.stopped,test_practice.stopped,practice_trials.key_resp_4.keys,practice_trials.key_resp_4.corr,practice_trials.key_resp_4.rt,practice_trials.key_resp_4.duration,takeabreak.started,takeabreak.stopped,practice_trials.key_resp_5.keys,init_trials.started,init_trials.stopped,test.started,test_sound.started,key_resp_2.started,polygon_2.started,serialPort_item.started,serialPort_item.stopped,test_sound.stopped,test.stopped,experimental_trials.key_resp_2.keys,experimental_trials.key_resp_2.corr,experimental_trials.key_resp_2.rt,experimental_trials.key_resp_2.duration,experimental_trials.key_resp_5.keys,text_3.started,key_resp_5.started,experimental_trials.key_resp_5.rt,experimental_trials.key_resp_5.duration,Thanks.started,text_2.started,key_resp_thanks.started,Thanks.stopped,key_resp_thanks.keys,key_resp_thanks.rt,key_resp_thanks.duration,participant,session,date,expName,psychopyVersion,frameRate,expStart,
,,,,,,,,,,,,,,,,,,,,,,,,,,,,,,,,,,,,,,,,,,,,,,,,,,,,0.0029131000046618283,0.008893399994121864,0.008893399994121864,4394.158424499998,space,4394.1383112000185,None,,,,,,,,,,,,,,,,,,,,,,,,,,,,,,,,,,,,,,,,,,,,27_L2,001,2025-05-01_15h44.05.431,LangExperimentstress,2024.2.4,60.1868319640597,2025-05-01 15h44.27.095152 -0400,
,,,,,,,,,,,,,,,,,,,,,,,,,,,,,,,,,,,,,,,,,,,,,,,,,,,,,,,,,,,4394.158480199985,4394.158825999999,,,,,,,,,,,,,,,,,,,,,,,,,,,,,,,,,,,,,,,,,,27_L2,001,2025-05-01_15h44.05.431,LangExperimentstress,2024.2.4,60.1868319640597,2025-05-01 15h44.27.095152 -0400,
sounds/p2b_cortar.wav,CVC,Unstressed,Mismatch,present,num_1,0.0,0.205513,0.8629519999999999,0.984841,1.219715,1.27,101,20,21,22,23,24,0.005513,0.662952,0.784841,1.019715,1.07,p2b_cortar.wav,p2,b,p2b,0,0,0,right,0,14.114039600011893,None,None,,,,,,,,0,0,0,1,,,,,4394.177599999995,,,,,,,,,,,4394.167644500005,4394.174043766663,4394.177599999995,4394.177599999995,0.008843000017805025,0.019370800000615418,4396.440997600002,4408.293984599994,right,0,14.114039600011893,None,4408.296879899979,4408.296979799983,None,,,,,,,,,,,,,,,,,,,,,,,,,,,27_L2,001,2025-05-01_15h44.05.431,LangExperimentstress,2024.2.4,60.1868319640597,2025-05-01 15h44.27.095152 -0400,
sounds/p4d_cortar.wav,CVC,Stressed,Mismatch,past,num_2,0.0,0.205513,0.8629519999999999,0.984841,1.219715,1.27,101,40,41,42,43,44,0.005513,0.662952,0.784841,1.019715,1.07,p4d_cortar.wav,p4,d,p4d,1,1,0,left,0,5.722528699989198,None,None,,,,,,,,0,1,1,3,,,,,4408.313269099977,,,,,,,,,,,4408.303470599989,4408.307917366652,4408.313269099977,4408.313269099977,0.006502000003820285,0.016843199991853908,4410.825329999992,4414.044572199986,left,0,5.722528699989198,None,4414.047389999992,4414.0474751,None,,,,,,,,,,,,,,,,,,,,,,,,,,,27_L2,001,2025-05-01_15h44.05.431,LangExperimentstress,2024.2.4,60.1868319640597,2025-05-01 15h44.27.095152 -0400,
sounds/p3c_saltar.wav,CVC,Unstressed,Match,past,num_2,0.0,0.205513,0.8629519999999999,0.984841,1.219715,1.27,101,30,31,32,33,34,0.005513,0.662952,0.784841,1.019715,1.07,p3c_saltar.wav,p3,c,p3c,2,2,0,right,0,3.4536241999885533,None,None,,,,,,,,0,2,2,2,,,,,4414.062967899983,,,,,,,,,,,4414.052221199992,4414.058596666644,4414.062967899983,4414.062967899983,0.004764899989822879,0.016547399980481714,4416.158348500001,4417.52770169999,right,0,3.4536241999885533,None,4417.531841299991,4417.531925599993,None,,,,,,,,,,,,,,,,,,,,,,,,,,,27_L2,001,2025-05-01_15h44.05.431,LangExperimentstress,2024.2.4,60.1868319640597,2025-05-01 15h44.27.095152 -0400,
sounds/p1a_saltar.wav,CVC,Stressed,Match,present,num_1,0.0,0.205513,0.8629519999999999,0.984841,1.219715,1.27,101,10,11,12,13,14,0.005513,0.662952,0.784841,1.019715,1.07,p1a_saltar.wav,p1,a,p1a,3,3,0,right,0,3.359133199992357,None,None,,,,,,,,0,3,3,0,,,,,4417.549877499987,,,,,,,,,,,4417.536819100002,4417.54196336665,4417.549877499987,4417.549877499987,0.004901399981463328,0.019196299981558695,4419.792033899983,4420.911734399997,right,0,3.359133199992357,None,4420.915979099984,4420.916058100003,None,,,,,,,,,,,,,,,,,,,,,,,,,,,27_L2,001,2025-05-01_15h44.05.431,LangExperimentstress,2024.2.4,60.1868319640597,2025-05-01 15h44.27.095152 -0400,
,,,,,,,,,,,,,,,,,,,,,,,,,,,,,,,,,,,,,,,,,,,,,,,,,,,,4420.916270999995,4420.9252825999865,4420.9252825999865,4501.713362499984,space,80.77383540000301,None,,,,,,,,,,,,,,,,,,,,,,,,,,,,,,,,,,,,,,,,,,,,27_L2,001,2025-05-01_15h44.05.431,LangExperimentstress,2024.2.4,60.1868319640597,2025-05-01 15h44.27.095152 -0400,
,,,,,,,,,,,,,,,,,,,,,,,,,,,,,,,,,,,,,,,,,,,,,,,,,,,,,,,,,,,,,,,,,,,,,,,,,,,,4501.71346649999,4501.714538899978,,,,,,,,,,,,,,,,,,,,,,,,,27_L2,001,2025-05-01_15h44.05.431,LangExperimentstress,2024.2.4,60.1868319640597,2025-05-01 15h44.27.095152 -0400,
sounds/31d_tocar.wav,CVC,Stressed,Mismatch,past,num_2,0.0,0.2,0.8493931756807,0.8650112062639721,1.006860547391531,1.049162047334928,101,40,41,42,43,44,0,0.6493931756807,0.665011206263972,0.806860547391531,0.849162047334928,31d_tocar.wav,,d,,0,0,0,,,,,None,31,right,0,8.25535389999277,None,,,,,,,0,0,0,30,4501.748698399984,,,,,,,,,,,,,,,,,,,,,,,4510.017482399999,4510.017573599995,,,,4501.73854619998,4501.743838433329,4501.748698399984,4501.748698399984,0.023989400011487305,0.03476440001395531,4503.660402799986,4510.013512799982,right,0,8.25535389999277,None,None,,,,,,,,,,,,27_L2,001,2025-05-01_15h44.05.431,LangExperimentstress,2024.2.4,60.1868319640597,2025-05-01 15h44.27.095152 -0400,
sounds/08d_filtrar.wav,CVC,Stressed,Mismatch,past,num_2,0.0,0.2,0.7526856695589441,0.87808115762362,1.118901843962886,1.172598812485867,101,40,41,42,43,44,0,0.552685669558944,0.67808115762362,0.918901843962886,0.972598812485867,08d_filtrar.wav,,d,,1,1,0,,,,,None,8,left,0,4.970004000002518,None,,,,,,,0,1,1,15,4510.033154000004,,,,,,,,,,,,,,,,,,,,,,,4515.016947299999,4515.017054600001,,,,4510.022599299991,4510.0275495666465,4510.033154000004,4510.033154000004,0.005045600002631545,0.016743200016207993,4511.794038699998,4515.013794099999,left,0,4.970004000002518,None,None,,,,,,,,,,,,27_L2,001,2025-05-01_15h44.05.431,LangExperimentstress,2024.2.4,60.1868319640597,2025-05-01 15h44.27.095152 -0400,
sounds/07c_tumbar.wav,CVC,Unstressed,Match,past,num_2,0.0,0.2,0.9084024930273432,0.9247360728973012,1.143289673625005,1.154847989033482,101,30,31,32,33,34,0,0.708402493027343,0.724736072897301,0.943289673625005,0.954847989033482,07c_tumbar.wav,,c,,2,2,0,,,,,None,7,left,0,7.602722399984486,None,,,,,,,0,2,2,6,4515.032767299999,,,,,,,,,,,,,,,,,,,,,,,4522.650239599985,4522.650315299979,,,,4515.02175699998,4515.027534866651,4515.032767299999,4515.032767299999,0.0046971999981906265,0.016535699978703633,4516.994026799977,4522.646570099983,left,0,7.602722399984486,None,None,,,,,,,,,,,,27_L2,001,2025-05-01_15h44.05.431,LangExperimentstress,2024.2.4,60.1868319640597,2025-05-01 15h44.27.095152 -0400,
sounds/24d_mirar.wav,CVC,Stressed,Mismatch,past,num_2,0.0,0.2,0.71,0.8119545789930551,0.9389863642939812,0.9746780743634248,101,40,41,42,43,44,0,0.51,0.611954578993055,0.738986364293981,0.774678074363425,24d_mirar.wav,,d,,3,3,0,,,,,None,24,right,0,2.8101437000150327,None,,,,,,,0,3,3,11,4522.665353499993,,,,,,,,,,,,,,,,,,,,,,,4525.483786099998,4525.483865699993,,,,4522.654325599986,4522.660791266655,4522.665353499993,4522.665353499993,0.004018600011477247,0.01594940002541989,4524.376926800003,4525.48104459999,right,0,2.8101437000150327,None,None,,,,,,,,,,,,27_L2,001,2025-05-01_15h44.05.431,LangExperimentstress,2024.2.4,60.1868319640597,2025-05-01 15h44.27.095152 -0400,
sounds/36c_bordar.wav,CVC,Unstressed,Match,past,num_2,0.0,0.2,1.0,1.078468243634259,1.3288624855324,1.3414992042824,101,30,31,32,33,34,0,0.8,0.878468243634259,1.1288624855324,1.1414992042824,36c_bordar.wav,,c,,4,4,0,,,,,None,36,right,0,5.2905022999912035,None,,,,,,,0,4,4,1,4525.497725699999,,,,,,,,,,,,,,,,,,,,,,,4530.800794799987,4530.800885899982,,,,4525.488305999985,4525.49476356665,4525.497725699999,4525.497725699999,0.004444899997906759,0.014566600002581254,4527.777692399977,4530.79660479998,right,0,5.2905022999912035,None,None,,,,,,,,,,,,27_L2,001,2025-05-01_15h44.05.431,LangExperimentstress,2024.2.4,60.1868319640597,2025-05-01 15h44.27.095152 -0400,
sounds/26a_bajar.wav,CVC,Stressed,Match,present,num_1,0.0,0.2,0.77,0.8999999999999999,1.03,1.171181705729166,101,10,11,12,13,14,0,0.57,0.7,0.83,0.971181705729166,26a_bajar.wav,,a,,5,5,0,,,,,None,26,right,0,4.227480400004424,None,,,,,,,0,5,5,13,4530.816988699982,,,,,,,,,,,,,,,,,,,,,,,4535.051797699998,4535.051884199987,,,,4530.806186200003,4530.8107890666615,4530.816988699982,4530.816988699982,0.005320099997334182,0.017133699991973117,4532.894962899998,4535.047774699982,right,0,4.227480400004424,None,None,,,,,,,,,,,,27_L2,001,2025-05-01_15h44.05.431,LangExperimentstress,2024.2.4,60.1868319640597,2025-05-01 15h44.27.095152 -0400,
sounds/29a_pesar.wav,CVC,Stressed,Match,present,num_1,0.0,0.2,0.91328417532552,0.925531286730473,1.03,1.150619522602117,101,10,11,12,13,14,0,0.71328417532552,0.725531286730473,0.83,0.950619522602117,29a_pesar.wav,,a,,6,6,0,,,,,None,29,left,0,3.3438887000083923,None,,,,,,,0,6,6,32,4535.067424899986,,,,,,,,,,,,,,,,,,,,,,,4538.418152500002,4538.418239999999,,,,4535.056420899986,4535.061467666648,4535.067424899986,4535.067424899986,0.004534900013823062,0.016480999998748302,4536.977862200001,4538.414301299985,left,0,3.3438887000083923,None,None,,,,,,,,,,,,27_L2,001,2025-05-01_15h44.05.431,LangExperimentstress,2024.2.4,60.1868319640597,2025-05-01 15h44.27.095152 -0400,
sounds/37b_pasar.wav,CVC,Unstressed,Mismatch,present,num_1,0.0,0.2,1.033132486979166,1.052087565104166,1.159499674479166,1.27702115885416,101,20,21,22,23,24,0,0.833132486979166,0.852087565104166,0.959499674479166,1.07702115885416,37b_pasar.wav,,b,,7,7,0,,,,,None,37,right,0,6.361031000007642,None,,,,,,,0,7,7,23,4538.434854299994,,,,,,,,,,,,,,,,,,,,,,,4544.8180599999905,4544.8181461999775,,,,4538.423564299999,4538.428402866648,4538.434854299994,4538.434854299994,0.005326699989382178,0.01799089999985881,4540.546004499978,4544.8138202999835,right,0,6.361031000007642,None,None,,,,,,,,,,,,27_L2,001,2025-05-01_15h44.05.431,LangExperimentstress,2024.2.4,60.1868319640597,2025-05-01 15h44.27.095152 -0400,
sounds/38b_pagar.wav,CVC,Unstressed,Mismatch,present,num_1,0.0,0.2,1.166737304687499,1.185271158854166,1.29521061197916,1.4055712890624898,101,20,21,22,23,24,0,0.966737304687499,0.985271158854166,1.09521061197916,1.20557128906249,38b_pagar.wav,,b,,8,8,0,,,,,None,38,right,0,4.057084500003839,None,,,,,,,0,8,8,17,4544.836104499991,,,,,,,,,,,,,,,,,,,,,,,4548.901196399995,4548.90126459999,,,,4544.823317000002,4544.828166666648,4544.836104499991,4544.836104499991,0.005191300006117672,0.019134300004225224,4547.094680899987,4548.898430600006,right,0,4.057084500003839,None,None,,,,,,,,,,,,27_L2,001,2025-05-01_15h44.05.431,LangExperimentstress,2024.2.4,60.1868319640597,2025-05-01 15h44.27.095152 -0400,
sounds/05a_fumar.wav,CVC,Stressed,Match,present,num_1,0.0,0.2,1.15,1.36712555700231,1.48,1.56308830295138,101,10,11,12,13,14,0,0.95,1.16712555700231,1.28,1.36308830295138,05a_fumar.wav,,a,,9,9,0,,,,,space,5,left,0,4.393008099985309,None,7.603457999997772,None,,,,,0,9,9,38,4548.9153338999895,,,,,,,,,,,,,,,,,,,,,,,4553.318596199999,4560.94763379998,,,,4548.905557399994,4548.912442666657,4548.9153338999895,4548.9153338999895,0.004298000014387071,0.014910300000337884,4551.278633699985,4553.314439899987,left,0,4.393008099985309,None,space,4553.3280906,4553.3280906,7.603457999997772,None,,,,,,,,27_L2,001,2025-05-01_15h44.05.431,LangExperimentstress,2024.2.4,60.1868319640597,2025-05-01 15h44.27.095152 -0400,
sounds/13c_montar.wav,CVC,Unstressed,Match,past,num_2,0.0,0.2,0.8800000000000001,0.98,1.24543012152777,1.2594709201388798,101,30,31,32,33,34,0,0.68,0.78,1.04543012152777,1.05947092013888,13c_montar.wav,,c,,10,10,0,,,,,None,13,right,0,5.463697400002275,None,,,,,,,0,10,10,33,4560.964497299981,,,,,,,,,,,,,,,,,,,,,,,4566.436382699991,4566.436469399981,,,,4560.953049399977,4560.9617859666505,4560.964497299981,4560.964497299981,0.005379199981689453,0.01767390000168234,4563.261636299983,4566.432233300002,right,0,5.463697400002275,None,None,,,,,,,,,,,,27_L2,001,2025-05-01_15h44.05.431,LangExperimentstress,2024.2.4,60.1868319640597,2025-05-01 15h44.27.095152 -0400,
sounds/12a_matar.wav,CVC,Stressed,Match,present,num_1,0.0,0.2,0.8400000000000001,0.96,1.17307472511574,1.186647497106481,101,10,11,12,13,14,0,0.64,0.76,0.97307472511574,0.986647497106481,12a_matar.wav,,a,,11,11,0,,,,,None,12,right,0,5.111753900011536,None,,,,,,,0,11,11,25,4566.452364800003,,,,,,,,,,,,,,,,,,,,,,,4571.5705954000005,4571.570692699985,,,,4566.4415918999875,4566.446190566672,4566.452364800003,4566.452364800003,0.005137800006195903,0.0168413000064902,4568.645178599982,4571.56670939998,right,0,5.111753900011536,None,None,,,,,,,,,,,,27_L2,001,2025-05-01_15h44.05.431,LangExperimentstress,2024.2.4,60.1868319640597,2025-05-01 15h44.27.095152 -0400,
sounds/14b_borrar.wav,CVC,Unstressed,Mismatch,present,num_1,0.0,0.2,0.72,0.770187630208333,0.851961241319444,0.964399956597222,101,20,21,22,23,24,0,0.52,0.570187630208333,0.651961241319444,0.764399956597222,14b_borrar.wav,,b,,12,12,0,,,,,None,14,right,0,3.049362099991413,None,,,,,,,0,12,12,20,4571.587202499999,,,,,,,,,,,,,,,,,,,,,,,4574.652490299981,4574.6526231000025,,,,4571.576209799998,4571.580102866665,4571.587202499999,4571.587202499999,0.005547700013266876,0.01756000000750646,4573.5449570000055,4574.648228599981,right,0,3.049362099991413,None,None,,,,,,,,,,,,27_L2,001,2025-05-01_15h44.05.431,LangExperimentstress,2024.2.4,60.1868319640597,2025-05-01 15h44.27.095152 -0400,
sounds/22d_dejar.wav,CVC,Stressed,Mismatch,past,num_2,0.0,0.2,0.8500000000000001,1.02,1.152543366608796,1.28794346788194,101,40,41,42,43,44,0,0.65,0.82,0.952543366608796,1.08794346788194,22d_dejar.wav,,d,,13,13,0,,,,,None,22,left,0,3.8562300999765284,None,,,,,,,0,13,13,14,4574.668444599985,,,,,,,,,,,,,,,,,,,,,,,4578.535296599992,4578.535385700001,,,,4574.657468899997,4574.662250066645,4574.668444599985,4574.668444599985,0.004853000020375475,0.01677780001773499,4576.712156599999,4578.531886099983,left,0,3.8562300999765284,None,None,,,,,,,,,,,,27_L2,001,2025-05-01_15h44.05.431,LangExperimentstress,2024.2.4,60.1868319640597,2025-05-01 15h44.27.095152 -0400,
sounds/30a_fundar.wav,CVC,Stressed,Match,present,num_1,0.0,0.2,0.77,0.91,1.112685546875,1.12,101,10,11,12,13,14,0,0.57,0.71,0.912685546875,0.92,30a_fundar.wav,,a,,14,14,0,,,,,None,30,right,0,4.475262700027088,None,,,,,,,0,14,14,36,4578.552234200004,,,,,,,,,,,,,,,,,,,,,,,4583.035888399987,4583.0359486999805,,,,4578.5410177999875,4578.545995266646,4578.552234200004,4578.552234200004,0.005653700005495921,0.017912000010255724,4580.712472599989,4583.032236700004,right,0,4.475262700027088,None,None,,,,,,,,,,,,27_L2,001,2025-05-01_15h44.05.431,LangExperimentstress,2024.2.4,60.1868319640597,2025-05-01 15h44.27.095152 -0400,
sounds/04c_plantar.wav,CVC,Unstressed,Match,past,num_2,0.0,0.2,0.862877574458911,0.9343518689653568,1.20493812332404,1.21897569287037,101,30,31,32,33,34,0,0.662877574458911,0.734351868965357,1.00493812332404,1.01897569287037,04c_plantar.wav,,c,,15,15,0,,,,,None,4,right,0,5.234097799984738,None,,,,,,,0,15,15,9,4583.050140399981,,,,,,,,,,,,,,,,,,,,,,,4588.302057299996,4588.302138500003,,,,4583.0395890999935,4583.046042066653,4583.050140399981,4583.050140399981,0.0036515999818220735,0.015066599997226149,4585.095890800003,4588.298071099998,right,0,5.234097799984738,None,None,,,,,,,,,,,,27_L2,001,2025-05-01_15h44.05.431,LangExperimentstress,2024.2.4,60.1868319640597,2025-05-01 15h44.27.095152 -0400,
sounds/19a_marcar.wav,CVC,Stressed,Match,present,num_1,0.0,0.2,0.8400000000000001,0.97,1.245718359375,1.273519140625,101,10,11,12,13,14,0,0.64,0.77,1.045718359375,1.073519140625,19a_marcar.wav,,a,,16,16,0,,,,,None,19,right,0,9.862232200015569,None,,,,,,,0,16,16,19,4588.3177507999935,,,,,,,,,,,,,,,,,,,,,,,4598.185777499981,4598.185869299981,,,,4588.307014799997,4588.312341766668,4588.3177507999935,4588.3177507999935,0.004878500010818243,0.016521699988516048,4590.212724799989,4598.182354299992,right,0,9.862232200015569,None,None,,,,,,,,,,,,27_L2,001,2025-05-01_15h44.05.431,LangExperimentstress,2024.2.4,60.1868319640597,2025-05-01 15h44.27.095152 -0400,
sounds/28d_parar.wav,CVC,Stressed,Mismatch,past,num_2,0.0,0.2,0.8458860026041659,0.862313736979166,1.018194683159722,1.032797113715277,101,40,41,42,43,44,0,0.645886002604166,0.662313736979166,0.818194683159722,0.832797113715277,28d_parar.wav,,d,,17,17,0,,,,,None,28,left,0,3.217425100010587,None,,,,,,,0,17,17,18,4598.202905299986,,,,,,,,,,,,,,,,,,,,,,,4601.436425599997,4601.43651129998,,,,4598.19095639998,4598.196168066646,4598.202905299986,4598.202905299986,0.00509369999053888,0.017967799998586997,4600.112457599986,4601.432169399981,left,0,3.217425100010587,None,None,,,,,,,,,,,,27_L2,001,2025-05-01_15h44.05.431,LangExperimentstress,2024.2.4,60.1868319640597,2025-05-01 15h44.27.095152 -0400,
sounds/03b_limpiar.wav,CVC,Unstressed,Mismatch,present,num_1,0.0,0.2,0.8500000000000001,0.932367621527777,1.26878515625,1.35808463541666,101,20,21,22,23,24,0,0.65,0.732367621527777,1.06878515625,1.15808463541666,03b_limpiar.wav,,b,,18,18,0,,,,,None,3,right,0,4.10919419999118,None,,,,,,,0,18,18,4,4601.454068899999,,,,,,,,,,,,,,,,,,,,,,,4605.569783499988,4605.569875199988,,,,4601.44203179999,4601.446212966668,4601.454068899999,4601.454068899999,0.005562999984249473,0.01870829999097623,4603.596460100001,4605.565654000005,right,0,4.10919419999118,None,None,,,,,,,,,,,,27_L2,001,2025-05-01_15h44.05.431,LangExperimentstress,2024.2.4,60.1868319640597,2025-05-01 15h44.27.095152 -0400,
sounds/15b_partir.wav,CVC,Unstressed,Mismatch,present,num_1,0.0,0.2,0.826865400752314,0.842973894883327,1.1042888772729471,1.120815958498066,101,20,21,22,23,24,0,0.626865400752314,0.642973894883327,0.904288877272947,0.920815958498066,15b_partir.wav,,b,,19,19,0,,,,,space,15,right,0,5.47404960001586,None,1.9082924000103958,None,,,,,0,19,19,22,4605.586575199995,,,,,,,,,,,,,,,,,,,,,,,4611.070388499997,4612.998632699979,,,,4605.574887099996,4605.5797605666485,4605.586575199995,4605.586575199995,0.00502119999146089,0.01760449999710545,4607.646864899987,4611.066029299982,right,0,5.47404960001586,None,space,4611.0796305999975,4611.0796305999975,1.9082924000103958,None,,,,,,,,27_L2,001,2025-05-01_15h44.05.431,LangExperimentstress,2024.2.4,60.1868319640597,2025-05-01 15h44.27.095152 -0400,
sounds/16a_llevar.wav,CVC,Stressed,Match,present,num_1,0.0,0.2,0.929084516317274,0.964936524692279,1.08,1.131864014418682,101,10,11,12,13,14,0,0.729084516317274,0.764936524692279,0.88,0.931864014418682,16a_llevar.wav,,a,,20,20,0,,,,,None,16,right,0,5.477332499984186,None,,,,,,,0,20,20,21,4613.014753399999,,,,,,,,,,,,,,,,,,,,,,,4618.50294939999,4618.503037099988,,,,4613.003296799987,4613.012922466649,4613.014753399999,4613.014753399999,0.0045791999727953225,0.01693299997714348,4614.913489099999,4618.499128800002,right,0,5.477332499984186,None,None,,,,,,,,,,,,27_L2,001,2025-05-01_15h44.05.431,LangExperimentstress,2024.2.4,60.1868319640597,2025-05-01 15h44.27.095152 -0400,
sounds/40c_gastar.wav,CVC,Unstressed,Match,past,num_2,0.0,0.2,0.8300000000000001,0.8400000000000001,1.163436328125,1.183149609375,101,30,31,32,33,34,0,0.63,0.64,0.963436328125,0.983149609375,40c_gastar.wav,,c,,21,21,0,,,,,None,40,left,0,2.908434299984947,None,,,,,,,0,21,21,0,4618.518925099983,,,,,,,,,,,,,,,,,,,,,,,4621.436767999985,4621.436850800004,,,,4618.508039599983,4618.51316606667,4618.518925099983,4618.518925099983,0.0050029999983962625,0.01673149998532608,4620.630151299993,4621.432772400003,left,0,2.908434299984947,None,None,,,,,,,,,,,,27_L2,001,2025-05-01_15h44.05.431,LangExperimentstress,2024.2.4,60.1868319640597,2025-05-01 15h44.27.095152 -0400,
sounds/01d_salvar.wav,CVC,Stressed,Mismatch,past,num_2,0.0,0.2,0.8500000000000001,0.996069502314814,1.23,1.29,101,40,41,42,43,44,0,0.65,0.796069502314814,1.03,1.09,01d_salvar.wav,,d,,22,22,0,,,,,None,1,left,0,3.8314114999957383,None,,,,,,,0,22,22,37,4621.452508399991,,,,,,,,,,,,,,,,,,,,,,,4625.3034313999815,4625.3035196999845,,,,4621.4416001999925,4621.447017566654,4621.452508399991,4621.452508399991,0.004757499991683289,0.016588800004683435,4623.512377199979,4625.2993607999815,left,0,3.8314114999957383,None,None,,,,,,,,,,,,27_L2,001,2025-05-01_15h44.05.431,LangExperimentstress,2024.2.4,60.1868319640597,2025-05-01 15h44.27.095152 -0400,
sounds/09c_cargar.wav,CVC,Unstressed,Match,past,num_2,0.0,0.2,0.81286744068287,0.8382251229745361,1.032634020543981,1.090594437210648,101,30,31,32,33,34,0,0.61286744068287,0.638225122974536,0.832634020543981,0.890594437210648,09c_cargar.wav,,c,,23,23,0,,,,,None,9,left,0,3.8926055999763776,None,,,,,,,0,23,23,28,4625.320637800003,,,,,,,,,,,,,,,,,,,,,,,4629.219065099984,4629.219150399993,,,,4625.308418300003,4625.313531066644,4625.320637800003,4625.320637800003,0.004913699987810105,0.01821929999277927,4627.246572499978,4629.215866299986,left,0,3.8926055999763776,None,None,,,,,,,,,,,,27_L2,001,2025-05-01_15h44.05.431,LangExperimentstress,2024.2.4,60.1868319640597,2025-05-01 15h44.27.095152 -0400,
sounds/34c_formar.wav,CVC,Unstressed,Match,past,num_2,0.0,0.2,0.876373676215277,0.992687651909722,1.14,1.26319767795138,101,30,31,32,33,34,0,0.676373676215277,0.792687651909722,0.94,1.06319767795138,34c_formar.wav,,c,,24,24,0,,,,,None,34,left,0,3.7057209000049625,None,,,,,,,0,24,24,2,4629.233924100001,,,,,,,,,,,,,,,,,,,,,,,4632.95068759998,4632.950739499996,,,,4629.22410599998,4629.229957566658,4629.233924100001,4629.233924100001,0.004959199985023588,0.015727799996966496,4631.480248799984,4632.94817269998,left,0,3.7057209000049625,None,None,,,,,,,,,,,,27_L2,001,2025-05-01_15h44.05.431,LangExperimentstress,2024.2.4,60.1868319640597,2025-05-01 15h44.27.095152 -0400,
sounds/35b_secar.wav,CVC,Unstressed,Mismatch,present,num_1,0.0,0.2,0.8990044921875,1.025708658854166,1.179689416956018,1.20652606336805,101,20,21,22,23,24,0,0.6990044921875,0.825708658854166,0.979689416956018,1.00652606336805,35b_secar.wav,,b,,25,25,0,,,,,None,35,right,0,4.342431099998066,None,,,,,,,0,25,25,5,4632.965542899998,,,,,,,,,,,,,,,,,,,,,,,4637.3202757999825,4637.320367899985,,,,4632.953654099983,4632.9633543666605,4632.965542899998,4632.965542899998,0.0029249000072013587,0.015908800007309765,4635.113271599985,4637.316177300003,right,0,4.342431099998066,None,None,,,,,,,,,,,,27_L2,001,2025-05-01_15h44.05.431,LangExperimentstress,2024.2.4,60.1868319640597,2025-05-01 15h44.27.095152 -0400,
sounds/11a_pegar.wav,CVC,Stressed,Match,present,num_1,0.0,0.2,0.8182808977343741,0.831294515585661,0.98,1.012063288108519,101,10,11,12,13,14,0,0.618280897734374,0.631294515585661,0.78,0.812063288108519,11a_pegar.wav,,a,,26,26,0,,,,,None,11,right,0,2.4839693999965675,None,,,,,,,0,26,26,3,4637.336160799983,,,,,,,,,,,,,,,,,,,,,,,4639.837555199978,4639.83764339998,,,,4637.325379299989,4637.330291966649,4637.336160799983,4637.336160799983,0.005029100022511557,0.016935599996941164,4639.280893099989,4639.8332046,right,0,2.4839693999965675,None,None,,,,,,,,,,,,27_L2,001,2025-05-01_15h44.05.431,LangExperimentstress,2024.2.4,60.1868319640597,2025-05-01 15h44.27.095152 -0400,
sounds/27c_tirar.wav,CVC,Unstressed,Match,past,num_2,0.0,0.2,0.8119442057291659,0.8307495153356481,0.9885306495949072,0.998621303530092,101,30,31,32,33,34,0,0.611944205729166,0.630749515335648,0.788530649594907,0.798621303530092,27c_tirar.wav,,c,,27,27,0,,,,,None,27,left,0,4.0865227000031155,None,,,,,,,0,27,27,10,4639.854123099998,,,,,,,,,,,,,,,,,,,,,,,4643.953887099982,4643.953971999988,,,,4639.842833799979,4639.84733506665,4639.854123099998,4639.854123099998,0.005210099974647164,0.01762799997231923,4641.863797500002,4643.9497468000045,left,0,4.0865227000031155,None,None,,,,,,,,,,,,27_L2,001,2025-05-01_15h44.05.431,LangExperimentstress,2024.2.4,60.1868319640597,2025-05-01 15h44.27.095152 -0400,
sounds/17d_tragar.wav,CVC,Stressed,Mismatch,past,num_2,0.0,0.2,1.070609360532407,1.117973654513888,1.30915316840277,1.35458539534397,101,40,41,42,43,44,0,0.870609360532407,0.917973654513888,1.10915316840277,1.15458539534397,17d_tragar.wav,,d,,28,28,0,,,,,None,17,left,0,2.4333705000171904,None,,,,,,,0,28,28,26,4643.970469799999,,,,,,,,,,,,,,,,,,,,,,,4646.420571299997,4646.420658799994,,,,4643.9594170000055,4643.963712166649,4643.970469799999,4643.970469799999,0.005450199998449534,0.017397599993273616,4646.280885199987,4646.416433999984,left,0,2.4333705000171904,None,None,,,,,,,,,,,,27_L2,001,2025-05-01_15h44.05.431,LangExperimentstress,2024.2.4,60.1868319640597,2025-05-01 15h44.27.095152 -0400,
sounds/06d_soplar.wav,CVC,Stressed,Mismatch,past,num_2,0.0,0.2,0.761291666666666,0.8899999999999999,1.102139687590422,1.166665581687644,101,40,41,42,43,44,0,0.561291666666666,0.69,0.902139687590422,0.966665581687644,06d_soplar.wav,,d,,29,29,0,,,,,space,6,left,0,3.794560600013938,None,1.0290464999852702,None,,,,,0,29,29,16,4646.435350499989,,,,,,,,,,,,,,,,,,,,,,,4650.237593500002,4651.283190099988,,,,4646.425189000001,4646.430531566646,4646.435350499989,4646.435350499989,0.004535499989287928,0.01551840000320226,4648.313733799994,4650.233541499998,left,0,3.794560600013938,None,space,4650.247070299985,4650.247070299985,1.0290464999852702,None,,,,,,,,27_L2,001,2025-05-01_15h44.05.431,LangExperimentstress,2024.2.4,60.1868319640597,2025-05-01 15h44.27.095152 -0400,
sounds/21a_mezclar.wav,CVC,Stressed,Match,present,num_1,0.0,0.2,0.78,0.9121902777777772,1.20214212962962,1.27,101,10,11,12,13,14,0,0.58,0.712190277777777,1.00214212962962,1.07,21a_mezclar.wav,,a,,30,30,0,,,,,None,21,right,0,3.192451099981554,None,,,,,,,0,30,30,27,4651.299926099979,,,,,,,,,,,,,,,,,,,,,,,4654.503905799997,4654.503987399978,,,,4651.288027000002,4651.297386166672,4651.299926099979,4651.299926099979,0.004812400002265349,0.0176668000058271,4653.313954399986,4654.499786999979,right,0,3.192451099981554,None,None,,,,,,,,,,,,27_L2,001,2025-05-01_15h44.05.431,LangExperimentstress,2024.2.4,60.1868319640597,2025-05-01 15h44.27.095152 -0400,
sounds/10d_vender.wav,CVC,Stressed,Mismatch,past,num_2,0.0,0.2,0.832830209056713,0.8775468199411529,1.109501330306288,1.158928471023364,101,40,41,42,43,44,0,0.632830209056713,0.677546819941153,0.909501330306288,0.958928471023364,10d_vender.wav,,d,,31,31,0,,,,,None,10,left,0,4.651728700002423,None,,,,,,,0,31,31,12,4654.5199344999855,,,,,,,,,,,,,,,,,,,,,,,4659.187707799982,4659.187816699996,,,,4654.508761999983,4654.514004766654,4654.5199344999855,4654.5199344999855,0.0047811999975237995,0.01678340000216849,4656.414550499991,4659.184141399979,left,0,4.651728700002423,None,None,,,,,,,,,,,,27_L2,001,2025-05-01_15h44.05.431,LangExperimentstress,2024.2.4,60.1868319640597,2025-05-01 15h44.27.095152 -0400,
sounds/32d_pulsar.wav,CVC,Stressed,Mismatch,past,num_2,0.0,0.2,0.796440212673611,0.8294641710069439,0.99,1.097783832465277,101,40,41,42,43,44,0,0.596440212673611,0.629464171006944,0.79,0.897783832465277,32d_pulsar.wav,,d,,32,32,0,,,,,None,32,left,0,2.7554022000113036,None,,,,,,,0,32,32,24,4659.200882000005,,,,,,,,,,,,,,,,,,,,,,,4661.970395099983,4661.970483199984,,,,4659.191311200004,4659.19794466667,4659.200882000005,4659.200882000005,0.0034773999941535294,0.013565300003392622,4661.014135000005,4661.9663946999935,left,0,2.7554022000113036,None,None,,,,,,,,,,,,27_L2,001,2025-05-01_15h44.05.431,LangExperimentstress,2024.2.4,60.1868319640597,2025-05-01 15h44.27.095152 -0400,
sounds/39b_manchar.wav,CVC,Unstressed,Mismatch,present,num_1,0.0,0.2,0.81,0.91203755787037,1.140584317129629,1.2139708912037,101,20,21,22,23,24,0,0.61,0.71203755787037,0.940584317129629,1.0139708912037,39b_manchar.wav,,b,,33,33,0,,,,,None,39,right,0,2.4894760999886785,None,,,,,,,0,33,33,7,4661.9862249,,,,,,,,,,,,,,,,,,,,,,,4664.487710199988,4664.487790799991,,,,4661.9755120000045,4661.980594966652,4661.9862249,4661.9862249,0.005042900011176243,0.016529699991224334,4664.247597299982,4664.4836771999835,right,0,2.4894760999886785,None,None,,,,,,,,,,,,27_L2,001,2025-05-01_15h44.05.431,LangExperimentstress,2024.2.4,60.1868319640597,2025-05-01 15h44.27.095152 -0400,
sounds/33b_culpar.wav,CVC,Unstressed,Mismatch,present,num_1,0.0,0.2,0.8606178431336959,0.869103678029107,1.109891641372144,1.131540467434179,101,20,21,22,23,24,0,0.660617843133696,0.669103678029107,0.909891641372144,0.931540467434179,33b_culpar.wav,,b,,34,34,0,,,,,None,33,right,0,5.005455499980599,None,,,,,,,0,34,34,35,4664.502826699987,,,,,,,,,,,,,,,,,,,,,,,4669.520764399989,4669.520860399993,,,,4664.492381599994,4664.497823366666,4664.502826699987,4664.502826699987,0.004597300023306161,0.015818200015928596,4666.681292199995,4669.516714199999,right,0,5.005455499980599,None,None,,,,,,,,,,,,27_L2,001,2025-05-01_15h44.05.431,LangExperimentstress,2024.2.4,60.1868319640597,2025-05-01 15h44.27.095152 -0400,
sounds/25b_ganar.wav,CVC,Unstressed,Mismatch,present,num_1,0.0,0.2,1.152097938368055,1.15990068760488,1.28904165650454,1.37272500435153,101,20,21,22,23,24,0,0.952097938368055,0.95990068760488,1.08904165650454,1.17272500435153,25b_ganar.wav,,b,,35,35,0,,,,,None,25,right,0,2.434678799996618,None,,,,,,,0,35,35,8,4669.537238499994,,,,,,,,,,,,,,,,,,,,,,,4671.987315699982,4671.987402999977,,,,4669.526107199985,4669.530935166669,4669.537238499994,4669.537238499994,0.005247300025075674,0.017228800017619506,4671.881037099985,4671.98425139999,right,0,2.434678799996618,None,None,,,,,,,,,,,,27_L2,001,2025-05-01_15h44.05.431,LangExperimentstress,2024.2.4,60.1868319640597,2025-05-01 15h44.27.095152 -0400,
sounds/23a_tomar.wav,CVC,Stressed,Match,present,num_1,0.0,0.2,0.9453179615162032,0.95,1.08,1.158644495081018,101,10,11,12,13,14,0,0.745317961516203,0.75,0.88,0.958644495081018,23a_tomar.wav,,a,,36,36,0,,,,,None,23,right,0,2.8248125999816693,None,,,,,,,0,36,36,39,4672.003245,,,,,,,,,,,,,,,,,,,,,,,4674.838219700003,4674.838307900005,,,,4671.992105699988,4671.998336166671,4672.003245,4672.003245,0.004713500005891547,0.016628700017463416,4673.914351499989,4674.834222799982,right,0,2.8248125999816693,None,None,,,,,,,,,,,,27_L2,001,2025-05-01_15h44.05.431,LangExperimentstress,2024.2.4,60.1868319640597,2025-05-01 15h44.27.095152 -0400,
sounds/20c_cubrir.wav,CVC,Unstressed,Match,past,num_2,0.0,0.2,0.980138641742621,1.01,1.192436112212021,1.28412143493692,101,30,31,32,33,34,0,0.780138641742621,0.81,0.992436112212021,1.08412143493692,20c_cubrir.wav,,c,,37,37,0,,,,,None,20,left,0,2.73444530001143,None,,,,,,,0,37,37,31,4674.853973599995,,,,,,,,,,,,,,,,,,,,,,,4677.6040387999965,4677.6041369999875,,,,4674.843466799997,4674.848376166661,4674.853973599995,4674.853973599995,0.0051608999783638865,0.016582999989623204,4676.998284200003,4677.600568199996,left,0,2.73444530001143,None,None,,,,,,,,,,,,27_L2,001,2025-05-01_15h44.05.431,LangExperimentstress,2024.2.4,60.1868319640597,2025-05-01 15h44.27.095152 -0400,
sounds/02c_buscar.wav,CVC,Unstressed,Match,past,num_2,0.0,0.2,0.8700000000000001,1.07,1.26,1.40703946035879,101,30,31,32,33,34,0,0.67,0.87,1.06,1.20703946035879,02c_buscar.wav,,c,,38,38,0,,,,,None,2,left,0,2.8945091999776196,None,,,,,,,0,38,38,34,4677.620727500005,,,,,,,,,,,,,,,,,,,,,,,4680.521504899982,4680.521594999998,,,,4677.609241500002,4677.614555966666,4677.620727500005,4677.620727500005,0.005112499988172203,0.0175392999954056,4679.747608199978,4680.517914099997,left,0,2.8945091999776196,None,None,,,,,,,,,,,,27_L2,001,2025-05-01_15h44.05.431,LangExperimentstress,2024.2.4,60.1868319640597,2025-05-01 15h44.27.095152 -0400,
sounds/18b_cumplir.wav,CVC,Unstressed,Mismatch,present,num_1,0.0,0.2,1.2408027271412,1.25568597366898,1.46256310040509,1.54144430700231,101,20,21,22,23,24,0,1.0408027271412,1.05568597366898,1.26256310040509,1.34144430700231,18b_cumplir.wav,,b,,39,39,0,,,,,None,18,right,0,5.065937700012,None,,,,,,,0,39,39,29,4680.538078099984,,,,,,,,,,,,,,,,,,,,,,,4685.620683699992,4685.620770999987,,,,4680.527062999987,4680.531195766645,4680.538078099984,4680.538078099984,0.00552489998517558,0.017541099980007857,4682.714406199986,4685.617329200002,right,0,5.065937700012,None,None,,,,,,,,,,,,27_L2,001,2025-05-01_15h44.05.431,LangExperimentstress,2024.2.4,60.1868319640597,2025-05-01 15h44.27.095152 -0400,
,,,,,,,,,,,,,,,,,,,,,,,,,,,,,,,,,,,,,,,,,,,,,,,,,,,,,,,,,,,,,,,,,,,,,,,,,,,,,,,,,,,,,,,,,,,,,,,4685.621014499979,4685.6311443999875,4685.6311443999875,4695.367026299995,space,9.725237099977676,None,27_L2,001,2025-05-01_15h44.05.431,LangExperimentstress,2024.2.4,60.1868319640597,2025-05-01 15h44.27.095152 -0400,
