sounds,syll,stress_unstress,suffix,present_past,corrAns,trigger_item,trigger_senonset,trigger_verbsonset,trigger_1_F0,trigger_suffix,trigger_2_F0,ID_item,ID_senonset,ID_verbonset,ID_1_F0,ID_suffix,ID_2_F0,ms_senonset,ms_verbonset,ms_1_F0,ms_suffix,ms_2_F0,file_name,sentence,cond,combo,thisN,thisTrialN,thisRepN,key_resp_4.keys,key_resp_4.corr,key_resp_4.rt,key_resp_4.duration,key_resp_5.keys,item_id,key_resp_2.keys,key_resp_2.corr,key_resp_2.rt,key_resp_2.duration,key_resp_5.rt,key_resp_5.duration,practice_trials.thisRepN,practice_trials.thisTrialN,practice_trials.thisN,practice_trials.thisIndex,experimental_trials.thisRepN,experimental_trials.thisTrialN,experimental_trials.thisN,experimental_trials.thisIndex,thisRow.t,notes,instructions.started,instr.started,key_resp.started,instructions.stopped,key_resp.keys,key_resp.rt,key_resp.duration,init_practice.started,init_practice.stopped,test_practice.started,test_sound_2.started,key_resp_4.started,polygon.started,serialPort_item_2.started,serialPort_item_2.stopped,test_sound_2.stopped,test_practice.stopped,practice_trials.key_resp_4.keys,practice_trials.key_resp_4.corr,practice_trials.key_resp_4.rt,practice_trials.key_resp_4.duration,takeabreak.started,takeabreak.stopped,practice_trials.key_resp_5.keys,init_trials.started,init_trials.stopped,test.started,test_sound.started,key_resp_2.started,polygon_2.started,serialPort_item.started,serialPort_item.stopped,test_sound.stopped,test.stopped,experimental_trials.key_resp_2.keys,experimental_trials.key_resp_2.corr,experimental_trials.key_resp_2.rt,experimental_trials.key_resp_2.duration,experimental_trials.key_resp_5.keys,text_3.started,key_resp_5.started,experimental_trials.key_resp_5.rt,experimental_trials.key_resp_5.duration,Thanks.started,text_2.started,key_resp_thanks.started,Thanks.stopped,key_resp_thanks.keys,key_resp_thanks.rt,key_resp_thanks.duration,participant,session,date,expName,psychopyVersion,frameRate,expStart,
,,,,,,,,,,,,,,,,,,,,,,,,,,,,,,,,,,,,,,,,,,,,,,,,,,,,0.0027616000006673858,0.012321300000621704,0.012321300000621704,3418.856036600001,space,3418.8212249,None,,,,,,,,,,,,,,,,,,,,,,,,,,,,,,,,,,,,,,,,,,,,4_L2,001,2025-04-21_14h39.10.092,LangExperimentstress,2024.2.4,60.06597646855583,2025-04-21 14h39.45.536201 -0400,
,,,,,,,,,,,,,,,,,,,,,,,,,,,,,,,,,,,,,,,,,,,,,,,,,,,,,,,,,,,3418.856161500001,3418.8570957,,,,,,,,,,,,,,,,,,,,,,,,,,,,,,,,,,,,,,,,,,4_L2,001,2025-04-21_14h39.10.092,LangExperimentstress,2024.2.4,60.06597646855583,2025-04-21 14h39.45.536201 -0400,
sounds/p3c_saltar.wav,CVC,Unstressed,Match,past,num_2,0.0,0.205513,0.8629519999999999,0.984841,1.219715,1.27,101,30,31,32,33,34,0.005513,0.662952,0.784841,1.019715,1.07,p3c_saltar.wav,p3,c,p3c,0,0,0,left,0,5.728202500000407,None,None,,,,,,,,0,0,0,2,,,,,3418.8890533000003,,,,,,,,,,,3418.8781785,3418.8945714,3418.8890533000003,3418.8890533000003,0.02110230000107549,0.033095100001446554,3420.978021600001,3424.6290727000005,left,0,5.728202500000407,None,3424.6316940999995,3424.631730600001,None,,,,,,,,,,,,,,,,,,,,,,,,,,,4_L2,001,2025-04-21_14h39.10.092,LangExperimentstress,2024.2.4,60.06597646855583,2025-04-21 14h39.45.536201 -0400,
sounds/p4d_cortar.wav,CVC,Stressed,Mismatch,past,num_2,0.0,0.205513,0.8629519999999999,0.984841,1.219715,1.27,101,40,41,42,43,44,0.005513,0.662952,0.784841,1.019715,1.07,p4d_cortar.wav,p4,d,p4d,1,1,0,right,0,4.556967099999383,None,None,,,,,,,,0,1,1,3,,,,,3424.644475,,,,,,,,,,,3424.633795300001,3424.6439263666666,3424.644475,3424.644475,0.0020724000005429843,0.013523200001145597,3427.1613076000003,3429.2138447999996,right,0,4.556967099999383,None,3429.2179871,3429.218071800001,None,,,,,,,,,,,,,,,,,,,,,,,,,,,4_L2,001,2025-04-21_14h39.10.092,LangExperimentstress,2024.2.4,60.06597646855583,2025-04-21 14h39.45.536201 -0400,
sounds/p2b_cortar.wav,CVC,Unstressed,Mismatch,present,num_1,0.0,0.205513,0.8629519999999999,0.984841,1.219715,1.27,101,20,21,22,23,24,0.005513,0.662952,0.784841,1.019715,1.07,p2b_cortar.wav,p2,b,p2b,2,2,0,right,0,4.136874900001203,None,None,,,,,,,,0,2,2,1,,,,,3429.2326494,,,,,,,,,,,3429.2229806000005,3429.227765566667,3429.2326494,3429.2326494,0.004913600001600571,0.015280700001312653,3431.4946489000004,3433.3806163,right,0,4.136874900001203,None,3433.3846538999996,3433.3847460000006,None,,,,,,,,,,,,,,,,,,,,,,,,,,,4_L2,001,2025-04-21_14h39.10.092,LangExperimentstress,2024.2.4,60.06597646855583,2025-04-21 14h39.45.536201 -0400,
sounds/p1a_saltar.wav,CVC,Stressed,Match,present,num_1,0.0,0.205513,0.8629519999999999,0.984841,1.219715,1.27,101,10,11,12,13,14,0.005513,0.662952,0.784841,1.019715,1.07,p1a_saltar.wav,p1,a,p1a,3,3,0,left,0,2.751074799998605,None,None,,,,,,,,0,3,3,0,,,,,3433.402717600001,,,,,,,,,,,3433.3899799,3433.394750066667,3433.402717600001,3433.402717600001,0.005258099999991828,0.0191768000004231,3435.6444002,3436.1634979,left,0,2.751074799998605,None,3436.1674295000003,3436.167517500001,None,,,,,,,,,,,,,,,,,,,,,,,,,,,4_L2,001,2025-04-21_14h39.10.092,LangExperimentstress,2024.2.4,60.06597646855583,2025-04-21 14h39.45.536201 -0400,
,,,,,,,,,,,,,,,,,,,,,,,,,,,,,,,,,,,,,,,,,,,,,,,,,,,,3436.1677757000007,3436.1774615000004,3436.1774615000004,3444.362432500001,space,8.17592440000044,None,,,,,,,,,,,,,,,,,,,,,,,,,,,,,,,,,,,,,,,,,,,,4_L2,001,2025-04-21_14h39.10.092,LangExperimentstress,2024.2.4,60.06597646855583,2025-04-21 14h39.45.536201 -0400,
,,,,,,,,,,,,,,,,,,,,,,,,,,,,,,,,,,,,,,,,,,,,,,,,,,,,,,,,,,,,,,,,,,,,,,,,,,,,3444.3624960000006,3444.3629933,,,,,,,,,,,,,,,,,,,,,,,,,4_L2,001,2025-04-21_14h39.10.092,LangExperimentstress,2024.2.4,60.06597646855583,2025-04-21 14h39.45.536201 -0400,
sounds/26a_bajar.wav,CVC,Stressed,Match,present,num_1,0.0,0.2,0.77,0.8999999999999999,1.03,1.171181705729166,101,10,11,12,13,14,0,0.57,0.7,0.83,0.971181705729166,26a_bajar.wav,,a,,0,0,0,,,,,None,26,left,0,3.480916000000434,None,,,,,,,0,0,0,13,3444.3847609000013,,,,,,,,,,,,,,,,,,,,,,,3447.884278800001,3447.8844103,,,,3444.3746684000007,3444.3771576666672,3444.3847609000013,3444.3847609000013,0.011724099998900783,0.02236059999995632,3446.4614082,3447.880239700001,left,0,3.480916000000434,None,None,,,,,,,,,,,,4_L2,001,2025-04-21_14h39.10.092,LangExperimentstress,2024.2.4,60.06597646855583,2025-04-21 14h39.45.536201 -0400,
sounds/17d_tragar.wav,CVC,Stressed,Mismatch,past,num_2,0.0,0.2,1.070609360532407,1.117973654513888,1.30915316840277,1.35458539534397,101,40,41,42,43,44,0,0.870609360532407,0.917973654513888,1.10915316840277,1.15458539534397,17d_tragar.wav,,d,,1,1,0,,,,,None,17,right,0,3.8455288000004657,None,,,,,,,0,1,1,26,3447.900505300001,,,,,,,,,,,,,,,,,,,,,,,3451.7665642,3451.766640300001,,,,3447.890374900001,3447.8944037666674,3447.900505300001,3447.900505300001,0.005974800000331015,0.017041799999788054,3450.2112193000003,3451.7627616,right,0,3.8455288000004657,None,None,,,,,,,,,,,,4_L2,001,2025-04-21_14h39.10.092,LangExperimentstress,2024.2.4,60.06597646855583,2025-04-21 14h39.45.536201 -0400,
sounds/14b_borrar.wav,CVC,Unstressed,Mismatch,present,num_1,0.0,0.2,0.72,0.770187630208333,0.851961241319444,0.964399956597222,101,20,21,22,23,24,0,0.52,0.570187630208333,0.651961241319444,0.764399956597222,14b_borrar.wav,,b,,2,2,0,,,,,None,14,right,0,2.7074357999990752,None,,,,,,,0,2,2,20,3451.7812772999996,,,,,,,,,,,,,,,,,,,,,,,3454.500186800001,3454.5002515000006,,,,3451.7710401000013,3451.777435966667,3451.7812772999996,3451.7812772999996,0.004409799999848474,0.015542299999651732,3453.744968,3454.4965220000004,right,0,2.7074357999990752,None,None,,,,,,,,,,,,4_L2,001,2025-04-21_14h39.10.092,LangExperimentstress,2024.2.4,60.06597646855583,2025-04-21 14h39.45.536201 -0400,
sounds/08d_filtrar.wav,CVC,Stressed,Mismatch,past,num_2,0.0,0.2,0.7526856695589441,0.87808115762362,1.118901843962886,1.172598812485867,101,40,41,42,43,44,0,0.552685669558944,0.67808115762362,0.918901843962886,0.972598812485867,08d_filtrar.wav,,d,,3,3,0,,,,,None,8,left,0,3.6873599000009563,None,,,,,,,0,3,3,15,3454.5148633,,,,,,,,,,,,,,,,,,,,,,,3458.2180894000003,3458.218190300001,,,,3454.5037103000004,3454.511024466668,3454.5148633,3454.5148633,0.0034669000015128404,0.015500900000915863,3456.2781361999996,3458.2140124999996,left,0,3.6873599000009563,None,None,,,,,,,,,,,,4_L2,001,2025-04-21_14h39.10.092,LangExperimentstress,2024.2.4,60.06597646855583,2025-04-21 14h39.45.536201 -0400,
sounds/34c_formar.wav,CVC,Unstressed,Match,past,num_2,0.0,0.2,0.876373676215277,0.992687651909722,1.14,1.26319767795138,101,30,31,32,33,34,0,0.676373676215277,0.792687651909722,0.94,1.06319767795138,34c_formar.wav,,c,,4,4,0,,,,,None,34,left,0,4.861293599999044,None,,,,,,,0,4,4,2,3458.2357875000007,,,,,,,,,,,,,,,,,,,,,,,3463.1166600000006,3463.1167488,,,,3458.2236417000013,3458.227916066667,3458.2357875000007,3458.2357875000007,0.005472699998790631,0.018592399999761255,3460.4779006,3463.113346500001,left,0,4.861293599999044,None,None,,,,,,,,,,,,4_L2,001,2025-04-21_14h39.10.092,LangExperimentstress,2024.2.4,60.06597646855583,2025-04-21 14h39.45.536201 -0400,
sounds/30a_fundar.wav,CVC,Stressed,Match,present,num_1,0.0,0.2,0.77,0.91,1.112685546875,1.12,101,10,11,12,13,14,0,0.57,0.71,0.912685546875,0.92,30a_fundar.wav,,a,,5,5,0,,,,,None,30,right,0,5.612781099998756,None,,,,,,,0,5,5,36,3463.132069600001,,,,,,,,,,,,,,,,,,,,,,,3468.7508480999995,3468.7509364000007,,,,3463.1214874000007,3463.127584666668,3463.132069600001,3463.132069600001,0.004743699999380624,0.01621789999990142,3465.2949889,3468.7472946999997,right,0,5.612781099998756,None,None,,,,,,,,,,,,4_L2,001,2025-04-21_14h39.10.092,LangExperimentstress,2024.2.4,60.06597646855583,2025-04-21 14h39.45.536201 -0400,
sounds/29a_pesar.wav,CVC,Stressed,Match,present,num_1,0.0,0.2,0.91328417532552,0.925531286730473,1.03,1.150619522602117,101,10,11,12,13,14,0,0.71328417532552,0.725531286730473,0.83,0.950619522602117,29a_pesar.wav,,a,,6,6,0,,,,,None,29,left,0,2.2193225999999413,None,,,,,,,0,6,6,32,3468.7654807999998,,,,,,,,,,,,,,,,,,,,,,,3471.0010926000004,3471.0011726000002,,,,3468.755540500001,3468.761039766668,3468.7654807999998,3468.7654807999998,0.004614600000422797,0.015522399999099434,3470.6779674,3470.9971546999996,left,0,2.2193225999999413,None,None,,,,,,,,,,,,4_L2,001,2025-04-21_14h39.10.092,LangExperimentstress,2024.2.4,60.06597646855583,2025-04-21 14h39.45.536201 -0400,
sounds/31d_tocar.wav,CVC,Stressed,Mismatch,past,num_2,0.0,0.2,0.8493931756807,0.8650112062639721,1.006860547391531,1.049162047334928,101,40,41,42,43,44,0,0.6493931756807,0.665011206263972,0.806860547391531,0.849162047334928,31d_tocar.wav,,d,,7,7,0,,,,,None,31,left,0,2.3504038999999466,None,,,,,,,0,7,7,30,3471.018265400001,,,,,,,,,,,,,,,,,,,,,,,3473.384323000001,3473.3844010000003,,,,3471.005666,3471.011359866668,3471.018265400001,3471.018265400001,0.00451700000121491,0.01823530000001483,3472.9110155000008,3473.3806219000007,left,0,2.3504038999999466,None,None,,,,,,,,,,,,4_L2,001,2025-04-21_14h39.10.092,LangExperimentstress,2024.2.4,60.06597646855583,2025-04-21 14h39.45.536201 -0400,
sounds/16a_llevar.wav,CVC,Stressed,Match,present,num_1,0.0,0.2,0.929084516317274,0.964936524692279,1.08,1.131864014418682,101,10,11,12,13,14,0,0.729084516317274,0.764936524692279,0.88,0.931864014418682,16a_llevar.wav,,a,,8,8,0,,,,,None,16,right,0,4.610125299999709,None,,,,,,,0,8,8,21,3473.399781000001,,,,,,,,,,,,,,,,,,,,,,,3478.0185892,3478.0186845,,,,3473.388954500001,3473.3948110666674,3473.399781000001,3473.399781000001,0.004574700000375742,0.016638000000966713,3475.3110690000003,3478.0141300000005,right,0,4.610125299999709,None,None,,,,,,,,,,,,4_L2,001,2025-04-21_14h39.10.092,LangExperimentstress,2024.2.4,60.06597646855583,2025-04-21 14h39.45.536201 -0400,
sounds/25b_ganar.wav,CVC,Unstressed,Mismatch,present,num_1,0.0,0.2,1.152097938368055,1.15990068760488,1.28904165650454,1.37272500435153,101,20,21,22,23,24,0,0.952097938368055,0.95990068760488,1.08904165650454,1.17272500435153,25b_ganar.wav,,b,,9,9,0,,,,,space,25,right,0,3.350458899998557,None,12.89520359999915,None,,,,,0,9,9,8,3478.0347665,,,,,,,,,,,,,,,,,,,,,,,3481.3997424,3494.3131695,,,,3478.024203400001,3478.0279485666665,3478.0347665,3478.0347665,0.005556099999012076,0.01718289999917033,3480.3777063000007,3481.3962015000006,right,0,3.350458899998557,None,space,3481.4106973000007,3481.4106973000007,12.89520359999915,None,,,,,,,,4_L2,001,2025-04-21_14h39.10.092,LangExperimentstress,2024.2.4,60.06597646855583,2025-04-21 14h39.45.536201 -0400,
sounds/23a_tomar.wav,CVC,Stressed,Match,present,num_1,0.0,0.2,0.9453179615162032,0.95,1.08,1.158644495081018,101,10,11,12,13,14,0,0.745317961516203,0.75,0.88,0.958644495081018,23a_tomar.wav,,a,,10,10,0,,,,,None,23,left,0,2.439627499999915,None,,,,,,,0,10,10,39,3494.3296872,,,,,,,,,,,,,,,,,,,,,,,3496.784285300001,3496.784378000001,,,,3494.317970000001,3494.3275148666667,3494.3296872,3494.3296872,0.00477110000065295,0.01729169999998703,3496.2446047000003,3496.7799846999997,left,0,2.439627499999915,None,None,,,,,,,,,,,,4_L2,001,2025-04-21_14h39.10.092,LangExperimentstress,2024.2.4,60.06597646855583,2025-04-21 14h39.45.536201 -0400,
sounds/05a_fumar.wav,CVC,Stressed,Match,present,num_1,0.0,0.2,1.15,1.36712555700231,1.48,1.56308830295138,101,10,11,12,13,14,0,0.95,1.16712555700231,1.28,1.36308830295138,05a_fumar.wav,,a,,11,11,0,,,,,None,5,left,0,3.0244872000002943,None,,,,,,,0,11,11,38,3496.800812800001,,,,,,,,,,,,,,,,,,,,,,,3499.8320995000004,3499.8321876,,,,3496.7903909999995,3496.7945065666677,3496.800812800001,3496.800812800001,0.0060350000003381865,0.017660499999692547,3499.177946500001,3499.8297092000003,left,0,3.0244872000002943,None,None,,,,,,,,,,,,4_L2,001,2025-04-21_14h39.10.092,LangExperimentstress,2024.2.4,60.06597646855583,2025-04-21 14h39.45.536201 -0400,
sounds/36c_bordar.wav,CVC,Unstressed,Match,past,num_2,0.0,0.2,1.0,1.078468243634259,1.3288624855324,1.3414992042824,101,30,31,32,33,34,0,0.8,0.878468243634259,1.1288624855324,1.1414992042824,36c_bordar.wav,,c,,12,12,0,,,,,None,36,left,0,5.786029799999596,None,,,,,,,0,12,12,1,3499.8471978000007,,,,,,,,,,,,,,,,,,,,,,,3505.651357400001,3505.6514498999995,,,,3499.837031,3499.844534866668,3499.8471978000007,3499.8471978000007,0.004849800001466065,0.01583270000082848,3502.1279826,3505.647557000001,left,0,5.786029799999596,None,None,,,,,,,,,,,,4_L2,001,2025-04-21_14h39.10.092,LangExperimentstress,2024.2.4,60.06597646855583,2025-04-21 14h39.45.536201 -0400,
sounds/27c_tirar.wav,CVC,Unstressed,Match,past,num_2,0.0,0.2,0.8119442057291659,0.8307495153356481,0.9885306495949072,0.998621303530092,101,30,31,32,33,34,0,0.611944205729166,0.630749515335648,0.788530649594907,0.798621303530092,27c_tirar.wav,,c,,13,13,0,,,,,None,27,left,0,2.9078214000001026,None,,,,,,,0,13,13,10,3505.6691409000005,,,,,,,,,,,,,,,,,,,,,,,3508.5838892,3508.5839640000004,,,,3505.656421800001,3505.6612125666666,3505.6691409000005,3505.6691409000005,0.004995400000552763,0.0188694000007672,3507.6780817999997,3508.579997900001,left,0,2.9078214000001026,None,None,,,,,,,,,,,,4_L2,001,2025-04-21_14h39.10.092,LangExperimentstress,2024.2.4,60.06597646855583,2025-04-21 14h39.45.536201 -0400,
sounds/09c_cargar.wav,CVC,Unstressed,Match,past,num_2,0.0,0.2,0.81286744068287,0.8382251229745361,1.032634020543981,1.090594437210648,101,30,31,32,33,34,0,0.61286744068287,0.638225122974536,0.832634020543981,0.890594437210648,09c_cargar.wav,,c,,14,14,0,,,,,None,9,right,0,2.458408700000291,None,,,,,,,0,14,14,28,3508.598664600001,,,,,,,,,,,,,,,,,,,,,,,3511.068318800001,3511.0684021000006,,,,3508.5879006000005,3508.594415666668,3508.598664600001,3508.598664600001,0.003943300000173622,0.015551000000414206,3510.5279552,3511.0640876000007,right,0,2.458408700000291,None,None,,,,,,,,,,,,4_L2,001,2025-04-21_14h39.10.092,LangExperimentstress,2024.2.4,60.06597646855583,2025-04-21 14h39.45.536201 -0400,
sounds/13c_montar.wav,CVC,Unstressed,Match,past,num_2,0.0,0.2,0.8800000000000001,0.98,1.24543012152777,1.2594709201388798,101,30,31,32,33,34,0,0.68,0.78,1.04543012152777,1.05947092013888,13c_montar.wav,,c,,15,15,0,,,,,None,13,left,0,2.7024593000005552,None,,,,,,,0,15,15,33,3511.0829712000004,,,,,,,,,,,,,,,,,,,,,,,3513.8013641000007,3513.801445100001,,,,3511.0730722,3511.0777072666674,3511.0829712000004,3511.0829712000004,0.004677099999753409,0.015425400000822265,3513.3779913999997,3513.797427300001,left,0,2.7024593000005552,None,None,,,,,,,,,,,,4_L2,001,2025-04-21_14h39.10.092,LangExperimentstress,2024.2.4,60.06597646855583,2025-04-21 14h39.45.536201 -0400,
sounds/10d_vender.wav,CVC,Stressed,Mismatch,past,num_2,0.0,0.2,0.832830209056713,0.8775468199411529,1.109501330306288,1.158928471023364,101,40,41,42,43,44,0,0.632830209056713,0.677546819941153,0.909501330306288,0.958928471023364,10d_vender.wav,,d,,16,16,0,,,,,None,10,left,0,2.767030499999237,None,,,,,,,0,16,16,12,3513.8182004,,,,,,,,,,,,,,,,,,,,,,,3516.6016707999997,3516.601753,,,,3513.8061480999995,3513.811541366667,3513.8182004,3513.8182004,0.0047081000011530705,0.017893199999889475,3515.727336000001,3516.5976134000002,left,0,2.767030499999237,None,None,,,,,,,,,,,,4_L2,001,2025-04-21_14h39.10.092,LangExperimentstress,2024.2.4,60.06597646855583,2025-04-21 14h39.45.536201 -0400,
sounds/33b_culpar.wav,CVC,Unstressed,Mismatch,present,num_1,0.0,0.2,0.8606178431336959,0.869103678029107,1.109891641372144,1.131540467434179,101,20,21,22,23,24,0,0.660617843133696,0.669103678029107,0.909891641372144,0.931540467434179,33b_culpar.wav,,b,,17,17,0,,,,,None,33,right,0,3.439034699998956,None,,,,,,,0,17,17,35,3516.618302600001,,,,,,,,,,,,,,,,,,,,,,,3520.067586100001,3520.067663500001,,,,3516.6067568999997,3516.6114641666677,3516.618302600001,3516.618302600001,0.005011000001104549,0.017634000001635286,3518.7941277,3520.0637744000005,right,0,3.439034699998956,None,None,,,,,,,,,,,,4_L2,001,2025-04-21_14h39.10.092,LangExperimentstress,2024.2.4,60.06597646855583,2025-04-21 14h39.45.536201 -0400,
sounds/07c_tumbar.wav,CVC,Unstressed,Match,past,num_2,0.0,0.2,0.9084024930273432,0.9247360728973012,1.143289673625005,1.154847989033482,101,30,31,32,33,34,0,0.708402493027343,0.724736072897301,0.943289673625005,0.954847989033482,07c_tumbar.wav,,c,,18,18,0,,,,,None,7,left,0,3.375043599999117,None,,,,,,,0,18,18,6,3520.0825436000005,,,,,,,,,,,,,,,,,,,,,,,3523.4642040999997,3523.4642491000004,,,,3520.0720553,3520.0775775666675,3520.0825436000005,3520.0825436000005,0.0044125000003987225,0.015715200001068297,3522.0442701,3523.4618669,left,0,3.375043599999117,None,None,,,,,,,,,,,,4_L2,001,2025-04-21_14h39.10.092,LangExperimentstress,2024.2.4,60.06597646855583,2025-04-21 14h39.45.536201 -0400,
sounds/19a_marcar.wav,CVC,Stressed,Match,present,num_1,0.0,0.2,0.8400000000000001,0.97,1.245718359375,1.273519140625,101,10,11,12,13,14,0,0.64,0.77,1.045718359375,1.073519140625,19a_marcar.wav,,a,,19,19,0,,,,,space,19,right,0,2.3779727000001003,None,2.172147599998425,None,,,,,0,19,19,19,3523.4786658000003,,,,,,,,,,,,,,,,,,,,,,,3525.8676036000006,3528.063524800001,,,,3523.4670029,3523.4770354666666,3523.4786658000003,3523.4786658000003,0.002777300000161631,0.015379600001324434,3525.377367600001,3525.8634685000006,right,0,2.3779727000001003,None,space,3525.8776344000007,3525.8776344000007,2.172147599998425,None,,,,,,,,4_L2,001,2025-04-21_14h39.10.092,LangExperimentstress,2024.2.4,60.06597646855583,2025-04-21 14h39.45.536201 -0400,
sounds/22d_dejar.wav,CVC,Stressed,Mismatch,past,num_2,0.0,0.2,0.8500000000000001,1.02,1.152543366608796,1.28794346788194,101,40,41,42,43,44,0,0.65,0.82,0.952543366608796,1.08794346788194,22d_dejar.wav,,d,,20,20,0,,,,,None,22,left,0,3.377629500000694,None,,,,,,,0,20,20,14,3528.0797278,,,,,,,,,,,,,,,,,,,,,,,3531.4651846000006,3531.4652502,,,,3528.0680543999997,3528.0777717666674,3528.0797278,3528.0797278,0.004505299999436829,0.01714910000009695,3530.1113425000012,3531.462138400001,left,0,3.377629500000694,None,None,,,,,,,,,,,,4_L2,001,2025-04-21_14h39.10.092,LangExperimentstress,2024.2.4,60.06597646855583,2025-04-21 14h39.45.536201 -0400,
sounds/32d_pulsar.wav,CVC,Stressed,Mismatch,past,num_2,0.0,0.2,0.796440212673611,0.8294641710069439,0.99,1.097783832465277,101,40,41,42,43,44,0,0.596440212673611,0.629464171006944,0.79,0.897783832465277,32d_pulsar.wav,,d,,21,21,0,,,,,None,32,left,0,3.0897445999999036,None,,,,,,,0,21,21,24,3531.4800232000007,,,,,,,,,,,,,,,,,,,,,,,3534.5842246,3534.5842963000005,,,,3531.468841500001,3531.477170366668,3531.4800232000007,3531.4800232000007,0.003618000000642496,0.015680000000429573,3533.2941141,3534.5803485000006,left,0,3.0897445999999036,None,None,,,,,,,,,,,,4_L2,001,2025-04-21_14h39.10.092,LangExperimentstress,2024.2.4,60.06597646855583,2025-04-21 14h39.45.536201 -0400,
sounds/35b_secar.wav,CVC,Unstressed,Mismatch,present,num_1,0.0,0.2,0.8990044921875,1.025708658854166,1.179689416956018,1.20652606336805,101,20,21,22,23,24,0,0.6990044921875,0.825708658854166,0.979689416956018,1.00652606336805,35b_secar.wav,,b,,22,22,0,,,,,None,35,right,0,2.7217112999987876,None,,,,,,,0,22,22,5,3534.599445300001,,,,,,,,,,,,,,,,,,,,,,,3537.3340646000006,3537.3341514000012,,,,3534.5885905000005,3534.5946967666673,3534.599445300001,3534.599445300001,0.004300299999158597,0.015957899999193614,3536.7440646000005,3537.330273800001,right,0,2.7217112999987876,None,None,,,,,,,,,,,,4_L2,001,2025-04-21_14h39.10.092,LangExperimentstress,2024.2.4,60.06597646855583,2025-04-21 14h39.45.536201 -0400,
sounds/39b_manchar.wav,CVC,Unstressed,Mismatch,present,num_1,0.0,0.2,0.81,0.91203755787037,1.140584317129629,1.2139708912037,101,20,21,22,23,24,0,0.61,0.71203755787037,0.940584317129629,1.0139708912037,39b_manchar.wav,,b,,23,23,0,,,,,None,39,right,0,1.9768187000008766,None,,,,,,,0,23,23,7,3537.352532,,,,,,,,,,,,,,,,,,,,,,,3539.370011600001,3539.3701021000006,,,,3537.3398659000004,3537.3444688666673,3537.352532,3537.352532,0.005739299998822389,0.019510199999785982,,3539.347112300001,right,0,1.9768187000008766,None,None,,,,,,,,,,,,4_L2,001,2025-04-21_14h39.10.092,LangExperimentstress,2024.2.4,60.06597646855583,2025-04-21 14h39.45.536201 -0400,
sounds/38b_pagar.wav,CVC,Unstressed,Mismatch,present,num_1,0.0,0.2,1.166737304687499,1.185271158854166,1.29521061197916,1.4055712890624898,101,20,21,22,23,24,0,0.966737304687499,0.985271158854166,1.09521061197916,1.20557128906249,38b_pagar.wav,,b,,24,24,0,,,,,None,38,right,0,2.7102037999993627,None,,,,,,,0,24,24,17,3539.3871953999997,,,,,,,,,,,,,,,,,,,,,,,3542.1175047999996,3542.1175857000007,,,,3539.375336,3539.3775712333336,3539.3871953999997,3539.3871953999997,0.005258300001514726,0.01822570000149426,3541.644207600001,3542.113578700001,right,0,2.7102037999993627,None,None,,,,,,,,,,,,4_L2,001,2025-04-21_14h39.10.092,LangExperimentstress,2024.2.4,60.06597646855583,2025-04-21 14h39.45.536201 -0400,
sounds/01d_salvar.wav,CVC,Stressed,Mismatch,past,num_2,0.0,0.2,0.8500000000000001,0.996069502314814,1.23,1.29,101,40,41,42,43,44,0,0.65,0.796069502314814,1.03,1.09,01d_salvar.wav,,d,,25,25,0,,,,,None,1,left,0,2.468458700001065,None,,,,,,,0,25,25,37,3542.1330375000007,,,,,,,,,,,,,,,,,,,,,,,3544.617259900001,3544.6173577,,,,3542.122954900001,3542.127920266668,3542.1330375000007,3542.1330375000007,0.005375599999752012,0.016303899999911664,3544.194078900001,3544.6133414000005,left,0,2.468458700001065,None,None,,,,,,,,,,,,4_L2,001,2025-04-21_14h39.10.092,LangExperimentstress,2024.2.4,60.06597646855583,2025-04-21 14h39.45.536201 -0400,
sounds/24d_mirar.wav,CVC,Stressed,Mismatch,past,num_2,0.0,0.2,0.71,0.8119545789930551,0.9389863642939812,0.9746780743634248,101,40,41,42,43,44,0,0.51,0.611954578993055,0.738986364293981,0.774678074363425,24d_mirar.wav,,d,,26,26,0,,,,,None,24,left,0,4.585572799998772,None,,,,,,,0,26,26,11,3544.6315592,,,,,,,,,,,,,,,,,,,,,,,3549.234013800001,3549.2340888999997,,,,3544.621352500001,3544.6276834666673,3544.6315592,3544.6315592,0.004000899998573004,0.015129499999602558,3546.344057700001,3549.2300614000005,left,0,4.585572799998772,None,None,,,,,,,,,,,,4_L2,001,2025-04-21_14h39.10.092,LangExperimentstress,2024.2.4,60.06597646855583,2025-04-21 14h39.45.536201 -0400,
sounds/21a_mezclar.wav,CVC,Stressed,Match,present,num_1,0.0,0.2,0.78,0.9121902777777772,1.20214212962962,1.27,101,10,11,12,13,14,0,0.58,0.712190277777777,1.00214212962962,1.07,21a_mezclar.wav,,a,,27,27,0,,,,,None,21,left,0,4.454588300000978,None,,,,,,,0,27,27,27,3549.2501097000013,,,,,,,,,,,,,,,,,,,,,,,3553.717740700001,3553.7178274000007,,,,3549.2386374999996,3549.2442289666665,3549.2501097000013,3549.2501097000013,0.004553799999484909,0.016943000000537722,3551.2780678999998,3553.7139992,left,0,4.454588300000978,None,None,,,,,,,,,,,,4_L2,001,2025-04-21_14h39.10.092,LangExperimentstress,2024.2.4,60.06597646855583,2025-04-21 14h39.45.536201 -0400,
sounds/18b_cumplir.wav,CVC,Unstressed,Mismatch,present,num_1,0.0,0.2,1.2408027271412,1.25568597366898,1.46256310040509,1.54144430700231,101,20,21,22,23,24,0,1.0408027271412,1.05568597366898,1.26256310040509,1.34144430700231,18b_cumplir.wav,,b,,28,28,0,,,,,None,18,right,0,6.371238699999594,None,,,,,,,0,28,28,29,3553.7344716,,,,,,,,,,,,,,,,,,,,,,,3560.1175477999996,3560.117627300001,,,,3553.7228877999996,3553.7280926666676,3553.7344716,3553.7344716,0.0050633000009838725,0.01782930000081251,3555.9111095,3560.1138039000007,right,0,6.371238699999594,None,None,,,,,,,,,,,,4_L2,001,2025-04-21_14h39.10.092,LangExperimentstress,2024.2.4,60.06597646855583,2025-04-21 14h39.45.536201 -0400,
sounds/11a_pegar.wav,CVC,Stressed,Match,present,num_1,0.0,0.2,0.8182808977343741,0.831294515585661,0.98,1.012063288108519,101,10,11,12,13,14,0,0.618280897734374,0.631294515585661,0.78,0.812063288108519,11a_pegar.wav,,a,,29,29,0,,,,,space,11,left,0,3.3423678999988624,None,11.682266899999377,None,,,,,0,29,29,3,3560.131583700001,,,,,,,,,,,,,,,,,,,,,,,3563.4854416000007,3575.179851,,,,3560.121812800001,3560.1280241666677,3560.131583700001,3560.131583700001,0.004198799999358016,0.014710900000864058,3562.0780554000003,3563.4812758,left,0,3.3423678999988624,None,space,3563.4944317,3563.4944317,11.682266899999377,None,,,,,,,,4_L2,001,2025-04-21_14h39.10.092,LangExperimentstress,2024.2.4,60.06597646855583,2025-04-21 14h39.45.536201 -0400,
sounds/03b_limpiar.wav,CVC,Unstressed,Mismatch,present,num_1,0.0,0.2,0.8500000000000001,0.932367621527777,1.26878515625,1.35808463541666,101,20,21,22,23,24,0,0.65,0.732367621527777,1.06878515625,1.15808463541666,03b_limpiar.wav,,b,,30,30,0,,,,,None,3,right,0,2.725916400000642,None,,,,,,,0,30,30,4,3575.195805600001,,,,,,,,,,,,,,,,,,,,,,,3577.9343235000006,3577.9344115000013,,,,3575.1845888,3575.194163966667,3575.195805600001,3575.195805600001,0.004721600000266335,0.016605400000116788,3577.344241,3577.930462000001,right,0,2.725916400000642,None,None,,,,,,,,,,,,4_L2,001,2025-04-21_14h39.10.092,LangExperimentstress,2024.2.4,60.06597646855583,2025-04-21 14h39.45.536201 -0400,
sounds/40c_gastar.wav,CVC,Unstressed,Match,past,num_2,0.0,0.2,0.8300000000000001,0.8400000000000001,1.163436328125,1.183149609375,101,30,31,32,33,34,0,0.63,0.64,0.963436328125,0.983149609375,40c_gastar.wav,,c,,31,31,0,,,,,None,40,left,0,2.666132300000754,None,,,,,,,0,31,31,0,3577.9509802000002,,,,,,,,,,,,,,,,,,,,,,,3580.633233900001,3580.6333016,,,,3577.9390336999995,3577.9445409666673,3577.9509802000002,3577.9509802000002,0.004632199999832665,0.01752429999942251,3580.0615055000007,3580.629737100001,left,0,2.666132300000754,None,None,,,,,,,,,,,,4_L2,001,2025-04-21_14h39.10.092,LangExperimentstress,2024.2.4,60.06597646855583,2025-04-21 14h39.45.536201 -0400,
sounds/15b_partir.wav,CVC,Unstressed,Mismatch,present,num_1,0.0,0.2,0.826865400752314,0.842973894883327,1.1042888772729471,1.120815958498066,101,20,21,22,23,24,0,0.626865400752314,0.642973894883327,0.904288877272947,0.920815958498066,15b_partir.wav,,b,,32,32,0,,,,,None,15,left,0,2.4970082999989245,None,,,,,,,0,32,32,22,3580.6478804000008,,,,,,,,,,,,,,,,,,,,,,,3583.1508267,3583.1509082000002,,,,3580.6374247000012,3580.6441868666675,3580.6478804000008,3580.6478804000008,0.004140200000620098,0.015345400001024245,3582.7107716,3583.1470243000012,left,0,2.4970082999989245,None,None,,,,,,,,,,,,4_L2,001,2025-04-21_14h39.10.092,LangExperimentstress,2024.2.4,60.06597646855583,2025-04-21 14h39.45.536201 -0400,
sounds/12a_matar.wav,CVC,Stressed,Match,present,num_1,0.0,0.2,0.8400000000000001,0.96,1.17307472511574,1.186647497106481,101,10,11,12,13,14,0,0.64,0.76,0.97307472511574,0.986647497106481,12a_matar.wav,,a,,33,33,0,,,,,None,12,left,0,2.2365080999989004,None,,,,,,,0,33,33,25,3583.1658856000004,,,,,,,,,,,,,,,,,,,,,,,3585.417145300001,3585.417222000001,,,,3583.1556742000002,3583.1608820666675,3583.1658856000004,3583.1658856000004,0.00478079999993497,0.015745400000014342,3585.3607666,3585.4132849000007,left,0,2.2365080999989004,None,None,,,,,,,,,,,,4_L2,001,2025-04-21_14h39.10.092,LangExperimentstress,2024.2.4,60.06597646855583,2025-04-21 14h39.45.536201 -0400,
sounds/06d_soplar.wav,CVC,Stressed,Mismatch,past,num_2,0.0,0.2,0.761291666666666,0.8899999999999999,1.102139687590422,1.166665581687644,101,40,41,42,43,44,0,0.561291666666666,0.69,0.902139687590422,0.966665581687644,06d_soplar.wav,,d,,34,34,0,,,,,None,6,left,0,4.241803699998854,None,,,,,,,0,34,34,16,3585.4321425000007,,,,,,,,,,,,,,,,,,,,,,,3589.6839253000007,3589.6840060000004,,,,3585.4217397,3585.427586166668,3585.4321425000007,3585.4321425000007,0.004525800000919844,0.01577240000005986,3587.3113265,3589.6802866000007,left,0,4.241803699998854,None,None,,,,,,,,,,,,4_L2,001,2025-04-21_14h39.10.092,LangExperimentstress,2024.2.4,60.06597646855583,2025-04-21 14h39.45.536201 -0400,
sounds/04c_plantar.wav,CVC,Unstressed,Match,past,num_2,0.0,0.2,0.862877574458911,0.9343518689653568,1.20493812332404,1.21897569287037,101,30,31,32,33,34,0,0.662877574458911,0.734351868965357,1.00493812332404,1.01897569287037,04c_plantar.wav,,c,,35,35,0,,,,,None,4,right,0,2.942784999999276,None,,,,,,,0,35,35,9,3589.6996728000004,,,,,,,,,,,,,,,,,,,,,,,3592.6520917999997,3592.6521986,,,,3589.6886498000013,3589.6944836666676,3589.6996728000004,3589.6996728000004,0.004648399999496178,0.016504600000189384,3591.7443109000005,3592.6477439,right,0,2.942784999999276,None,None,,,,,,,,,,,,4_L2,001,2025-04-21_14h39.10.092,LangExperimentstress,2024.2.4,60.06597646855583,2025-04-21 14h39.45.536201 -0400,
sounds/37b_pasar.wav,CVC,Unstressed,Mismatch,present,num_1,0.0,0.2,1.033132486979166,1.052087565104166,1.159499674479166,1.27702115885416,101,20,21,22,23,24,0,0.833132486979166,0.852087565104166,0.959499674479166,1.07702115885416,37b_pasar.wav,,b,,36,36,0,,,,,None,37,right,0,2.3741423999999824,None,,,,,,,0,36,36,23,3592.6678782999998,,,,,,,,,,,,,,,,,,,,,,,3595.0512128,3595.0512862000005,,,,3592.657261900001,3592.6616099666676,3592.6678782999998,3592.6678782999998,0.0050742999992507976,0.01676909999878262,3594.794726700001,3595.0472466,right,0,2.3741423999999824,None,None,,,,,,,,,,,,4_L2,001,2025-04-21_14h39.10.092,LangExperimentstress,2024.2.4,60.06597646855583,2025-04-21 14h39.45.536201 -0400,
sounds/02c_buscar.wav,CVC,Unstressed,Match,past,num_2,0.0,0.2,0.8700000000000001,1.07,1.26,1.40703946035879,101,30,31,32,33,34,0,0.67,0.87,1.06,1.20703946035879,02c_buscar.wav,,c,,37,37,0,,,,,None,2,left,0,5.1669578999990335,None,,,,,,,0,37,37,34,3595.0672982000006,,,,,,,,,,,,,,,,,,,,,,,3600.2494804999997,3600.2495482000004,,,,3595.055871400001,3595.061084366667,3595.0672982000006,3595.0672982000006,0.004615300000295974,0.01708900000085123,3597.1944282000013,3600.2462614000005,left,0,5.1669578999990335,None,None,,,,,,,,,,,,4_L2,001,2025-04-21_14h39.10.092,LangExperimentstress,2024.2.4,60.06597646855583,2025-04-21 14h39.45.536201 -0400,
sounds/28d_parar.wav,CVC,Stressed,Mismatch,past,num_2,0.0,0.2,0.8458860026041659,0.862313736979166,1.018194683159722,1.032797113715277,101,40,41,42,43,44,0,0.645886002604166,0.662313736979166,0.818194683159722,0.832797113715277,28d_parar.wav,,d,,38,38,0,,,,,None,28,right,0,3.000009699999282,None,,,,,,,0,38,38,18,3600.2645439,,,,,,,,,,,,,,,,,,,,,,,3603.2833753000004,3603.283457300001,,,,3600.2533852999995,3600.2607920666665,3600.2645439,3600.2645439,0.0038565999984712107,0.01598099999864644,3602.1778277000003,3603.280212800001,right,0,3.000009699999282,None,None,,,,,,,,,,,,4_L2,001,2025-04-21_14h39.10.092,LangExperimentstress,2024.2.4,60.06597646855583,2025-04-21 14h39.45.536201 -0400,
sounds/20c_cubrir.wav,CVC,Unstressed,Match,past,num_2,0.0,0.2,0.980138641742621,1.01,1.192436112212021,1.28412143493692,101,30,31,32,33,34,0,0.780138641742621,0.81,0.992436112212021,1.08412143493692,20c_cubrir.wav,,c,,39,39,0,,,,,None,20,left,0,3.5362341000000015,None,,,,,,,0,39,39,31,3603.297319600001,,,,,,,,,,,,,,,,,,,,,,,3606.8488782000013,3606.8489486000008,,,,3603.287815800001,3603.294608966667,3603.297319600001,3603.297319600001,0.004373600000690203,0.014682700000776094,3605.4448752,3606.8462102000003,left,0,3.5362341000000015,None,None,,,,,,,,,,,,4_L2,001,2025-04-21_14h39.10.092,LangExperimentstress,2024.2.4,60.06597646855583,2025-04-21 14h39.45.536201 -0400,
,,,,,,,,,,,,,,,,,,,,,,,,,,,,,,,,,,,,,,,,,,,,,,,,,,,,,,,,,,,,,,,,,,,,,,,,,,,,,,,,,,,,,,,,,,,,,,,3606.8491451,3606.860541000001,3606.860541000001,3612.946285500001,space,6.06842719999986,None,4_L2,001,2025-04-21_14h39.10.092,LangExperimentstress,2024.2.4,60.06597646855583,2025-04-21 14h39.45.536201 -0400,
