sounds,syll,stress_unstress,suffix,present_past,corrAns,trigger_item,trigger_senonset,trigger_verbsonset,trigger_1_F0,trigger_suffix,trigger_2_F0,ID_item,ID_senonset,ID_verbonset,ID_1_F0,ID_suffix,ID_2_F0,ms_senonset,ms_verbonset,ms_1_F0,ms_suffix,ms_2_F0,file_name,sentence,cond,combo,thisN,thisTrialN,thisRepN,key_resp_4.keys,key_resp_4.corr,key_resp_4.rt,key_resp_4.duration,key_resp_5.keys,item_id,key_resp_2.keys,key_resp_2.corr,key_resp_2.rt,key_resp_2.duration,key_resp_5.rt,key_resp_5.duration,practice_trials.thisRepN,practice_trials.thisTrialN,practice_trials.thisN,practice_trials.thisIndex,experimental_trials.thisRepN,experimental_trials.thisTrialN,experimental_trials.thisN,experimental_trials.thisIndex,thisRow.t,notes,instructions.started,instr.started,key_resp.started,instructions.stopped,key_resp.keys,key_resp.rt,key_resp.duration,init_practice.started,init_practice.stopped,test_practice.started,test_sound_2.started,key_resp_4.started,polygon.started,serialPort_item_2.started,serialPort_item_2.stopped,test_sound_2.stopped,test_practice.stopped,practice_trials.key_resp_4.keys,practice_trials.key_resp_4.corr,practice_trials.key_resp_4.rt,practice_trials.key_resp_4.duration,takeabreak.started,takeabreak.stopped,practice_trials.key_resp_5.keys,init_trials.started,init_trials.stopped,test.started,test_sound.started,key_resp_2.started,polygon_2.started,serialPort_item.started,serialPort_item.stopped,test_sound.stopped,test.stopped,experimental_trials.key_resp_2.keys,experimental_trials.key_resp_2.corr,experimental_trials.key_resp_2.rt,experimental_trials.key_resp_2.duration,experimental_trials.key_resp_5.keys,text_3.started,key_resp_5.started,experimental_trials.key_resp_5.rt,experimental_trials.key_resp_5.duration,Thanks.started,text_2.started,key_resp_thanks.started,Thanks.stopped,key_resp_thanks.keys,key_resp_thanks.rt,key_resp_thanks.duration,participant,session,date,expName,psychopyVersion,frameRate,expStart,
,,,,,,,,,,,,,,,,,,,,,,,,,,,,,,,,,,,,,,,,,,,,,,,,,,,,0.0025062000058824196,0.01333310001064092,0.01333310001064092,3829.557132700007,space,3829.530728800004,None,,,,,,,,,,,,,,,,,,,,,,,,,,,,,,,,,,,,,,,,,,,,6_L2,001,2025-04-22_14h27.14.427,LangExperimentstress,2024.2.4,59.96807299742502,2025-04-22 14h27.26.317646 -0400,
,,,,,,,,,,,,,,,,,,,,,,,,,,,,,,,,,,,,,,,,,,,,,,,,,,,,,,,,,,,3829.5572101,3829.5578038000094,,,,,,,,,,,,,,,,,,,,,,,,,,,,,,,,,,,,,,,,,,6_L2,001,2025-04-22_14h27.14.427,LangExperimentstress,2024.2.4,59.96807299742502,2025-04-22 14h27.26.317646 -0400,
sounds/p4d_cortar.wav,CVC,Stressed,Mismatch,past,num_2,0.0,0.205513,0.8629519999999999,0.984841,1.219715,1.27,101,40,41,42,43,44,0.005513,0.662952,0.784841,1.019715,1.07,p4d_cortar.wav,p4,d,p4d,0,0,0,left,0,8.090225299994927,None,None,,,,,,,,0,0,0,3,,,,,3829.5816398000024,,,,,,,,,,,3829.5718089,3829.5811102333328,3829.5816398000024,3829.5816398000024,0.014017699999385513,0.024511399999028072,3832.0981614000048,3837.6838578000024,left,0,8.090225299994927,None,3837.6874823000107,3837.6875911000097,None,,,,,,,,,,,,,,,,,,,,,,,,,,,6_L2,001,2025-04-22_14h27.14.427,LangExperimentstress,2024.2.4,59.96807299742502,2025-04-22 14h27.26.317646 -0400,
sounds/p1a_saltar.wav,CVC,Stressed,Match,present,num_1,0.0,0.205513,0.8629519999999999,0.984841,1.219715,1.27,101,10,11,12,13,14,0.005513,0.662952,0.784841,1.019715,1.07,p1a_saltar.wav,p1,a,p1a,1,1,0,right,0,5.159553799996502,None,None,,,,,,,,0,1,1,0,,,,,3837.703907800009,,,,,,,,,,,3837.693783900002,3837.698222766678,3837.703907800009,3837.703907800009,0.006211400002939627,0.017150100000435486,3839.948326800004,3842.8673805,right,0,5.159553799996502,None,3842.8707558000024,3842.870846200007,None,,,,,,,,,,,,,,,,,,,,,,,,,,,6_L2,001,2025-04-22_14h27.14.427,LangExperimentstress,2024.2.4,59.96807299742502,2025-04-22 14h27.26.317646 -0400,
sounds/p3c_saltar.wav,CVC,Unstressed,Match,past,num_2,0.0,0.205513,0.8629519999999999,0.984841,1.219715,1.27,101,30,31,32,33,34,0.005513,0.662952,0.784841,1.019715,1.07,p3c_saltar.wav,p3,c,p3c,2,2,0,left,0,6.30466300000262,None,None,,,,,,,,0,2,2,2,,,,,3842.887294500004,,,,,,,,,,,3842.8771769000014,3842.881487166673,3842.887294500004,3842.887294500004,0.006348499999148771,0.01736509999318514,3844.9822217000037,3849.201063100001,left,0,6.30466300000262,None,3849.205462400001,3849.2055538999994,None,,,,,,,,,,,,,,,,,,,,,,,,,,,6_L2,001,2025-04-22_14h27.14.427,LangExperimentstress,2024.2.4,59.96807299742502,2025-04-22 14h27.26.317646 -0400,
sounds/p2b_cortar.wav,CVC,Unstressed,Mismatch,present,num_1,0.0,0.205513,0.8629519999999999,0.984841,1.219715,1.27,101,20,21,22,23,24,0.005513,0.662952,0.784841,1.019715,1.07,p2b_cortar.wav,p2,b,p2b,3,3,0,right,0,4.7823694000107935,None,None,,,,,,,,0,3,3,1,,,,,3849.225293200012,,,,,,,,,,,3849.2141514000105,3849.215017066676,3849.225293200012,3849.225293200012,0.008647099995869212,0.02091749999090098,3851.481426700004,3854.0178175000037,right,0,4.7823694000107935,None,3854.021872000012,3854.021953100004,None,,,,,,,,,,,,,,,,,,,,,,,,,,,6_L2,001,2025-04-22_14h27.14.427,LangExperimentstress,2024.2.4,59.96807299742502,2025-04-22 14h27.26.317646 -0400,
,,,,,,,,,,,,,,,,,,,,,,,,,,,,,,,,,,,,,,,,,,,,,,,,,,,,3854.0221559000056,3854.0315719000064,3854.0315719000064,3869.567348299999,space,15.52829109999584,None,,,,,,,,,,,,,,,,,,,,,,,,,,,,,,,,,,,,,,,,,,,,6_L2,001,2025-04-22_14h27.14.427,LangExperimentstress,2024.2.4,59.96807299742502,2025-04-22 14h27.26.317646 -0400,
,,,,,,,,,,,,,,,,,,,,,,,,,,,,,,,,,,,,,,,,,,,,,,,,,,,,,,,,,,,,,,,,,,,,,,,,,,,,3869.567420700012,3869.5682913000055,,,,,,,,,,,,,,,,,,,,,,,,,6_L2,001,2025-04-22_14h27.14.427,LangExperimentstress,2024.2.4,59.96807299742502,2025-04-22 14h27.26.317646 -0400,
sounds/38b_pagar.wav,CVC,Unstressed,Mismatch,present,num_1,0.0,0.2,1.166737304687499,1.185271158854166,1.29521061197916,1.4055712890624898,101,20,21,22,23,24,0,0.966737304687499,0.985271158854166,1.09521061197916,1.20557128906249,38b_pagar.wav,,b,,0,0,0,,,,,None,38,left,0,4.66783089999808,None,,,,,,,0,0,0,17,3869.5957826000085,,,,,,,,,,,,,,,,,,,,,,,3874.2727878000005,3874.272918600007,,,,3869.586052400002,3869.5986103333353,3869.5957826000085,3869.5957826000085,0.017770100006600842,0.028035299998009577,3871.8489752000023,3874.2686372000026,left,0,4.66783089999808,None,None,,,,,,,,,,,,6_L2,001,2025-04-22_14h27.14.427,LangExperimentstress,2024.2.4,59.96807299742502,2025-04-22 14h27.26.317646 -0400,
sounds/35b_secar.wav,CVC,Unstressed,Mismatch,present,num_1,0.0,0.2,0.8990044921875,1.025708658854166,1.179689416956018,1.20652606336805,101,20,21,22,23,24,0,0.6990044921875,0.825708658854166,0.979689416956018,1.00652606336805,35b_secar.wav,,b,,1,1,0,,,,,None,35,right,0,2.9321748000074876,None,,,,,,,0,1,1,5,3874.2921287000063,,,,,,,,,,,,,,,,,,,,,,,3877.239576500011,3877.2396622000088,,,,3874.28114240001,3874.28256346667,3874.2921287000063,3874.2921287000063,0.008302400005050004,0.020021999996970408,3876.432580400011,3877.2353784000006,right,0,2.9321748000074876,None,None,,,,,,,,,,,,6_L2,001,2025-04-22_14h27.14.427,LangExperimentstress,2024.2.4,59.96807299742502,2025-04-22 14h27.26.317646 -0400,
sounds/13c_montar.wav,CVC,Unstressed,Match,past,num_2,0.0,0.2,0.8800000000000001,0.98,1.24543012152777,1.2594709201388798,101,30,31,32,33,34,0,0.68,0.78,1.04543012152777,1.05947092013888,13c_montar.wav,,c,,2,2,0,,,,,None,13,right,0,7.902559200010728,None,,,,,,,0,2,2,33,3877.257613599999,,,,,,,,,,,,,,,,,,,,,,,3885.1728031000093,3885.1728796000098,,,,3877.247112900004,3877.2494638666726,3877.257613599999,3877.257613599999,0.007542000006651506,0.018768900001305155,3879.565518100004,3885.1683502000087,right,0,7.902559200010728,None,None,,,,,,,,,,,,6_L2,001,2025-04-22_14h27.14.427,LangExperimentstress,2024.2.4,59.96807299742502,2025-04-22 14h27.26.317646 -0400,
sounds/19a_marcar.wav,CVC,Stressed,Match,present,num_1,0.0,0.2,0.8400000000000001,0.97,1.245718359375,1.273519140625,101,10,11,12,13,14,0,0.64,0.77,1.045718359375,1.073519140625,19a_marcar.wav,,a,,3,3,0,,,,,None,19,right,0,4.2981426999904215,None,,,,,,,0,3,3,19,3885.1893188000104,,,,,,,,,,,,,,,,,,,,,,,3889.5023770000116,3889.502410800007,,,,3885.1787680999987,3885.1825879666762,3885.1893188000104,3885.1893188000104,0.005873899994185194,0.017348900000797585,3887.0993562000076,3889.499711800003,right,0,4.2981426999904215,None,None,,,,,,,,,,,,6_L2,001,2025-04-22_14h27.14.427,LangExperimentstress,2024.2.4,59.96807299742502,2025-04-22 14h27.26.317646 -0400,
sounds/01d_salvar.wav,CVC,Stressed,Mismatch,past,num_2,0.0,0.2,0.8500000000000001,0.996069502314814,1.23,1.29,101,40,41,42,43,44,0,0.65,0.796069502314814,1.03,1.09,01d_salvar.wav,,d,,4,4,0,,,,,None,1,right,0,5.78614870000456,None,,,,,,,0,4,4,37,3889.5176994000067,,,,,,,,,,,,,,,,,,,,,,,3895.322012400007,3895.322098900011,,,,3889.5057196999987,3889.5150750666694,3889.5176994000067,3889.5176994000067,0.0033268999977735803,0.01622559998941142,3891.5823163000023,3895.3187623999984,right,0,5.78614870000456,None,None,,,,,,,,,,,,6_L2,001,2025-04-22_14h27.14.427,LangExperimentstress,2024.2.4,59.96807299742502,2025-04-22 14h27.26.317646 -0400,
sounds/22d_dejar.wav,CVC,Stressed,Mismatch,past,num_2,0.0,0.2,0.8500000000000001,1.02,1.152543366608796,1.28794346788194,101,40,41,42,43,44,0,0.65,0.82,0.952543366608796,1.08794346788194,22d_dejar.wav,,d,,5,5,0,,,,,None,22,right,0,4.9305786000040825,None,,,,,,,0,5,5,14,3895.341203700009,,,,,,,,,,,,,,,,,,,,,,,3900.2897042000113,3900.289793300006,,,,3895.3296923000016,3895.332800966677,3895.341203700009,3895.341203700009,0.007653799999388866,0.01997300000221003,3897.383048500007,3900.285270600012,right,0,4.9305786000040825,None,None,,,,,,,,,,,,6_L2,001,2025-04-22_14h27.14.427,LangExperimentstress,2024.2.4,59.96807299742502,2025-04-22 14h27.26.317646 -0400,
sounds/21a_mezclar.wav,CVC,Stressed,Match,present,num_1,0.0,0.2,0.78,0.9121902777777772,1.20214212962962,1.27,101,10,11,12,13,14,0,0.58,0.712190277777777,1.00214212962962,1.07,21a_mezclar.wav,,a,,6,6,0,,,,,None,21,left,0,3.8366638999868883,None,,,,,,,0,6,6,27,3900.306876100003,,,,,,,,,,,,,,,,,,,,,,,3904.154258900002,3904.154345200004,,,,3900.2960839000007,3900.2994405666727,3900.306876100003,3900.306876100003,0.006298600012087263,0.01795720000518486,3902.3318411000073,3904.1518222000013,left,0,3.8366638999868883,None,None,,,,,,,,,,,,6_L2,001,2025-04-22_14h27.14.427,LangExperimentstress,2024.2.4,59.96807299742502,2025-04-22 14h27.26.317646 -0400,
sounds/23a_tomar.wav,CVC,Stressed,Match,present,num_1,0.0,0.2,0.9453179615162032,0.95,1.08,1.158644495081018,101,10,11,12,13,14,0,0.745317961516203,0.75,0.88,0.958644495081018,23a_tomar.wav,,a,,7,7,0,,,,,None,23,right,0,2.207965300010983,None,,,,,,,0,7,7,39,3904.1685251000017,,,,,,,,,,,,,,,,,,,,,,,3906.3902598999994,3906.390351599999,,,,3904.1587456999987,3904.1659842666745,3904.1685251000017,3904.1685251000017,0.0044098999933339655,0.01497669999662321,3906.0837197000074,3906.386025700005,right,0,2.207965300010983,None,None,,,,,,,,,,,,6_L2,001,2025-04-22_14h27.14.427,LangExperimentstress,2024.2.4,59.96807299742502,2025-04-22 14h27.26.317646 -0400,
sounds/20c_cubrir.wav,CVC,Unstressed,Match,past,num_2,0.0,0.2,0.980138641742621,1.01,1.192436112212021,1.28412143493692,101,30,31,32,33,34,0,0.780138641742621,0.81,0.992436112212021,1.08412143493692,20c_cubrir.wav,,c,,8,8,0,,,,,None,20,left,0,3.109418899999582,None,,,,,,,0,8,8,31,3906.410465000008,,,,,,,,,,,,,,,,,,,,,,,3909.5388999999996,3909.538982500002,,,,3906.3987584999995,3906.399993766671,3906.410465000008,3906.410465000008,0.008476999995764345,0.021319499996025115,3908.5496776000073,3909.53597170001,left,0,3.109418899999582,None,None,,,,,,,,,,,,6_L2,001,2025-04-22_14h27.14.427,LangExperimentstress,2024.2.4,59.96807299742502,2025-04-22 14h27.26.317646 -0400,
sounds/27c_tirar.wav,CVC,Unstressed,Match,past,num_2,0.0,0.2,0.8119442057291659,0.8307495153356481,0.9885306495949072,0.998621303530092,101,30,31,32,33,34,0,0.611944205729166,0.630749515335648,0.788530649594907,0.798621303530092,27c_tirar.wav,,c,,9,9,0,,,,,space,27,left,0,2.5237063000095077,None,33.972569000005024,None,,,,,0,9,9,10,3909.5564506000082,,,,,,,,,,,,,,,,,,,,,,,3912.0893941000104,3946.0859674000094,,,,3909.5446892000036,3909.5501407666784,3909.5564506000082,3909.5564506000082,0.005734999998821877,0.018593000000691973,3911.5665088000096,3912.0857586000056,left,0,2.5237063000095077,None,space,3912.099362500012,3912.099362500012,33.972569000005024,None,,,,,,,,6_L2,001,2025-04-22_14h27.14.427,LangExperimentstress,2024.2.4,59.96807299742502,2025-04-22 14h27.26.317646 -0400,
sounds/15b_partir.wav,CVC,Unstressed,Mismatch,present,num_1,0.0,0.2,0.826865400752314,0.842973894883327,1.1042888772729471,1.120815958498066,101,20,21,22,23,24,0,0.626865400752314,0.642973894883327,0.904288877272947,0.920815958498066,15b_partir.wav,,b,,10,10,0,,,,,None,15,right,0,7.632048200001009,None,,,,,,,0,10,10,22,3946.1041409000027,,,,,,,,,,,,,,,,,,,,,,,3953.755796199999,3953.7558699000074,,,,3946.092391099999,3946.1002557666693,3946.1041409000027,3946.1041409000027,0.00636859999212902,0.019270299992058426,3948.1666079999995,3953.75281250001,right,0,7.632048200001009,None,None,,,,,,,,,,,,6_L2,001,2025-04-22_14h27.14.427,LangExperimentstress,2024.2.4,59.96807299742502,2025-04-22 14h27.26.317646 -0400,
sounds/25b_ganar.wav,CVC,Unstressed,Mismatch,present,num_1,0.0,0.2,1.152097938368055,1.15990068760488,1.28904165650454,1.37272500435153,101,20,21,22,23,24,0,0.952097938368055,0.95990068760488,1.08904165650454,1.17272500435153,25b_ganar.wav,,b,,11,11,0,,,,,None,25,right,0,3.4912681999994675,None,,,,,,,0,11,11,8,3953.7734891,,,,,,,,,,,,,,,,,,,,,,,3957.2729908000038,3957.2730713000055,,,,3953.7625310000003,3953.767274666669,3953.7734891,3953.7734891,0.0066786999959731475,0.01847579999594018,3956.1173048000055,3957.2701081999985,right,0,3.4912681999994675,None,None,,,,,,,,,,,,6_L2,001,2025-04-22_14h27.14.427,LangExperimentstress,2024.2.4,59.96807299742502,2025-04-22 14h27.26.317646 -0400,
sounds/28d_parar.wav,CVC,Stressed,Mismatch,past,num_2,0.0,0.2,0.8458860026041659,0.862313736979166,1.018194683159722,1.032797113715277,101,40,41,42,43,44,0,0.645886002604166,0.662313736979166,0.818194683159722,0.832797113715277,28d_parar.wav,,d,,12,12,0,,,,,None,28,right,0,4.4299589000002015,None,,,,,,,0,12,12,18,3957.2898092000105,,,,,,,,,,,,,,,,,,,,,,,3961.737109300011,3961.7371585000074,,,,3957.2791566000087,3957.284084166666,3957.2898092000105,3957.2898092000105,0.00609239999903366,0.017452700005378574,3959.200905500009,3961.735069000002,right,0,4.4299589000002015,None,None,,,,,,,,,,,,6_L2,001,2025-04-22_14h27.14.427,LangExperimentstress,2024.2.4,59.96807299742502,2025-04-22 14h27.26.317646 -0400,
sounds/06d_soplar.wav,CVC,Stressed,Mismatch,past,num_2,0.0,0.2,0.761291666666666,0.8899999999999999,1.102139687590422,1.166665581687644,101,40,41,42,43,44,0,0.561291666666666,0.69,0.902139687590422,0.966665581687644,06d_soplar.wav,,d,,13,13,0,,,,,None,6,left,0,4.070188899990171,None,,,,,,,0,13,13,16,3961.7532498000073,,,,,,,,,,,,,,,,,,,,,,,3965.840772800002,3965.8408296999987,,,,3961.7411475000117,3961.7501854666666,3961.7532498000073,3961.7532498000073,0.004008400006568991,0.017242000001715496,3963.6342454000114,3965.836983400004,left,0,4.070188899990171,None,None,,,,,,,,,,,,6_L2,001,2025-04-22_14h27.14.427,LangExperimentstress,2024.2.4,59.96807299742502,2025-04-22 14h27.26.317646 -0400,
sounds/32d_pulsar.wav,CVC,Stressed,Mismatch,past,num_2,0.0,0.2,0.796440212673611,0.8294641710069439,0.99,1.097783832465277,101,40,41,42,43,44,0,0.596440212673611,0.629464171006944,0.79,0.897783832465277,32d_pulsar.wav,,d,,14,14,0,,,,,None,32,right,0,6.807998899996164,None,,,,,,,0,14,14,24,3965.855603200005,,,,,,,,,,,,,,,,,,,,,,,3972.6744064000086,3972.674496000007,,,,3965.8456152,3965.851135766676,3965.855603200005,3965.855603200005,0.004809500009287149,0.015488500008359551,3967.667625700007,3972.670650500004,right,0,6.807998899996164,None,None,,,,,,,,,,,,6_L2,001,2025-04-22_14h27.14.427,LangExperimentstress,2024.2.4,59.96807299742502,2025-04-22 14h27.26.317646 -0400,
sounds/03b_limpiar.wav,CVC,Unstressed,Mismatch,present,num_1,0.0,0.2,0.8500000000000001,0.932367621527777,1.26878515625,1.35808463541666,101,20,21,22,23,24,0,0.65,0.732367621527777,1.06878515625,1.15808463541666,03b_limpiar.wav,,b,,15,15,0,,,,,None,3,right,0,3.931852000008803,None,,,,,,,0,15,15,4,3972.6912138000043,,,,,,,,,,,,,,,,,,,,,,,3976.6402641000022,3976.640353300012,,,,3972.680557700005,3972.6845194666716,3972.6912138000043,3972.6912138000043,0.006076200006646104,0.017693800007691607,3974.83484760001,3976.637185200001,right,0,3.931852000008803,None,None,,,,,,,,,,,,6_L2,001,2025-04-22_14h27.14.427,LangExperimentstress,2024.2.4,59.96807299742502,2025-04-22 14h27.26.317646 -0400,
sounds/37b_pasar.wav,CVC,Unstressed,Mismatch,present,num_1,0.0,0.2,1.033132486979166,1.052087565104166,1.159499674479166,1.27702115885416,101,20,21,22,23,24,0,0.833132486979166,0.852087565104166,0.959499674479166,1.07702115885416,37b_pasar.wav,,b,,16,16,0,,,,,None,37,left,0,2.8234175000106916,None,,,,,,,0,16,16,23,3976.6566998000053,,,,,,,,,,,,,,,,,,,,,,,3979.4904289000115,3979.4905187000113,,,,3976.64631370001,3976.6513310666674,3976.6566998000053,3976.6566998000053,0.00597600000037346,0.017152899992652237,3978.768133000005,3979.487228900005,left,0,2.8234175000106916,None,None,,,,,,,,,,,,6_L2,001,2025-04-22_14h27.14.427,LangExperimentstress,2024.2.4,59.96807299742502,2025-04-22 14h27.26.317646 -0400,
sounds/10d_vender.wav,CVC,Stressed,Mismatch,past,num_2,0.0,0.2,0.832830209056713,0.8775468199411529,1.109501330306288,1.158928471023364,101,40,41,42,43,44,0,0.632830209056713,0.677546819941153,0.909501330306288,0.958928471023364,10d_vender.wav,,d,,17,17,0,,,,,None,10,left,0,2.2121320000005653,None,,,,,,,0,17,17,12,3979.5070792000042,,,,,,,,,,,,,,,,,,,,,,,3981.740925200007,3981.74101540001,,,,3979.4965276000003,3979.5012068666733,3979.5070792000042,3979.5070792000042,0.006018700005370192,0.01750539999920875,3981.4011851000105,3981.737084600012,left,0,2.2121320000005653,None,None,,,,,,,,,,,,6_L2,001,2025-04-22_14h27.14.427,LangExperimentstress,2024.2.4,59.96807299742502,2025-04-22 14h27.26.317646 -0400,
sounds/17d_tragar.wav,CVC,Stressed,Mismatch,past,num_2,0.0,0.2,1.070609360532407,1.117973654513888,1.30915316840277,1.35458539534397,101,40,41,42,43,44,0,0.870609360532407,0.917973654513888,1.10915316840277,1.15458539534397,17d_tragar.wav,,d,,18,18,0,,,,,None,17,left,0,2.9347015999956056,None,,,,,,,0,18,18,26,3981.760563100004,,,,,,,,,,,,,,,,,,,,,,,3984.707288999998,3984.7073729000113,,,,3981.7486868999986,3981.751166566672,3981.760563100004,3981.760563100004,0.00776659999974072,0.02064230000542011,3984.0680598000035,3984.7034776000073,left,0,2.9347015999956056,None,None,,,,,,,,,,,,6_L2,001,2025-04-22_14h27.14.427,LangExperimentstress,2024.2.4,59.96807299742502,2025-04-22 14h27.26.317646 -0400,
sounds/31d_tocar.wav,CVC,Stressed,Mismatch,past,num_2,0.0,0.2,0.8493931756807,0.8650112062639721,1.006860547391531,1.049162047334928,101,40,41,42,43,44,0,0.6493931756807,0.665011206263972,0.806860547391531,0.849162047334928,31d_tocar.wav,,d,,19,19,0,,,,,space,31,left,0,3.450505799992243,None,1.6467304000107106,None,,,,,0,19,19,30,3984.7253650000057,,,,,,,,,,,,,,,,,,,,,,,3988.190430600007,3989.8544599000015,,,,3984.713754199998,3984.7177824666765,3984.7253650000057,3984.7253650000057,0.006407900000340305,0.019220399990445003,3986.634866799999,3988.1872351000056,left,0,3.450505799992243,None,space,3988.2010706,3988.2010706,1.6467304000107106,None,,,,,,,,6_L2,001,2025-04-22_14h27.14.427,LangExperimentstress,2024.2.4,59.96807299742502,2025-04-22 14h27.26.317646 -0400,
sounds/04c_plantar.wav,CVC,Unstressed,Match,past,num_2,0.0,0.2,0.862877574458911,0.9343518689653568,1.20493812332404,1.21897569287037,101,30,31,32,33,34,0,0.662877574458911,0.734351868965357,1.00493812332404,1.01897569287037,04c_plantar.wav,,c,,20,20,0,,,,,None,4,left,0,2.2874222999962512,None,,,,,,,0,20,20,9,3989.872694900012,,,,,,,,,,,,,,,,,,,,,,,3992.1716572000005,3992.171686200003,,,,3989.861623200006,3989.8685132666765,3989.872694900012,3989.872694900012,0.00715019999188371,0.01945469999918714,3991.9177506999986,3992.168776700011,left,0,2.2874222999962512,None,None,,,,,,,,,,,,6_L2,001,2025-04-22_14h27.14.427,LangExperimentstress,2024.2.4,59.96807299742502,2025-04-22 14h27.26.317646 -0400,
sounds/14b_borrar.wav,CVC,Unstressed,Mismatch,present,num_1,0.0,0.2,0.72,0.770187630208333,0.851961241319444,0.964399956597222,101,20,21,22,23,24,0,0.52,0.570187630208333,0.651961241319444,0.764399956597222,14b_borrar.wav,,b,,21,21,0,,,,,None,14,right,0,3.6690939999971306,None,,,,,,,0,21,21,20,3992.1864043000096,,,,,,,,,,,,,,,,,,,,,,,3995.873751799998,3995.873850200005,,,,3992.174349699999,3992.184184666669,3992.1864043000096,3992.1864043000096,0.0026711000100476667,0.015580100007355213,3994.13496570001,3995.8705907000112,right,0,3.6690939999971306,None,None,,,,,,,,,,,,6_L2,001,2025-04-22_14h27.14.427,LangExperimentstress,2024.2.4,59.96807299742502,2025-04-22 14h27.26.317646 -0400,
sounds/39b_manchar.wav,CVC,Unstressed,Mismatch,present,num_1,0.0,0.2,0.81,0.91203755787037,1.140584317129629,1.2139708912037,101,20,21,22,23,24,0,0.61,0.71203755787037,0.940584317129629,1.0139708912037,39b_manchar.wav,,b,,22,22,0,,,,,None,39,right,0,2.987295200000517,None,,,,,,,0,22,22,7,3995.891940600006,,,,,,,,,,,,,,,,,,,,,,,3998.889787500011,3998.889823500009,,,,3995.881279699999,3995.8848384666676,3995.891940600006,3995.891940600006,0.007405199998174794,0.019044500004383735,3998.1514702999993,3998.8868791999994,right,0,2.987295200000517,None,None,,,,,,,,,,,,6_L2,001,2025-04-22_14h27.14.427,LangExperimentstress,2024.2.4,59.96807299742502,2025-04-22 14h27.26.317646 -0400,
sounds/34c_formar.wav,CVC,Unstressed,Match,past,num_2,0.0,0.2,0.876373676215277,0.992687651909722,1.14,1.26319767795138,101,30,31,32,33,34,0,0.676373676215277,0.792687651909722,0.94,1.06319767795138,34c_formar.wav,,c,,23,23,0,,,,,None,34,left,0,2.8011648999963654,None,,,,,,,0,23,23,2,3998.9027559000097,,,,,,,,,,,,,,,,,,,,,,,4001.7238780000043,4001.723966000005,,,,3998.8931078000023,3998.901396266669,3998.9027559000097,3998.9027559000097,0.0032929000008152798,0.013719299997319467,4001.1525559,4001.7206001000013,left,0,2.8011648999963654,None,None,,,,,,,,,,,,6_L2,001,2025-04-22_14h27.14.427,LangExperimentstress,2024.2.4,59.96807299742502,2025-04-22 14h27.26.317646 -0400,
sounds/33b_culpar.wav,CVC,Unstressed,Mismatch,present,num_1,0.0,0.2,0.8606178431336959,0.869103678029107,1.109891641372144,1.131540467434179,101,20,21,22,23,24,0,0.660617843133696,0.669103678029107,0.909891641372144,0.931540467434179,33b_culpar.wav,,b,,24,24,0,,,,,None,33,right,0,2.585146999990684,None,,,,,,,0,24,24,35,4001.7421701999992,,,,,,,,,,,,,,,,,,,,,,,4004.3405991000036,4004.3406815000053,,,,4001.731130400003,4001.7349518666783,4001.7421701999992,4001.7421701999992,0.007180500004324131,0.01937280000129249,4003.918672400003,4004.337400400007,right,0,2.585146999990684,None,None,,,,,,,,,,,,6_L2,001,2025-04-22_14h27.14.427,LangExperimentstress,2024.2.4,59.96807299742502,2025-04-22 14h27.26.317646 -0400,
sounds/12a_matar.wav,CVC,Stressed,Match,present,num_1,0.0,0.2,0.8400000000000001,0.96,1.17307472511574,1.186647497106481,101,10,11,12,13,14,0,0.64,0.76,0.97307472511574,0.986647497106481,12a_matar.wav,,a,,25,25,0,,,,,None,12,right,0,2.5051557999977376,None,,,,,,,0,25,25,25,4004.3590702000074,,,,,,,,,,,,,,,,,,,,,,,4006.8748412999994,4006.8749313000008,,,,4004.3482048000005,4004.3515935666696,4004.3590702000074,4004.3590702000074,0.007550099995569326,0.019415199989452958,4006.5517505000025,4006.87135500001,right,0,2.5051557999977376,None,None,,,,,,,,,,,,6_L2,001,2025-04-22_14h27.14.427,LangExperimentstress,2024.2.4,59.96807299742502,2025-04-22 14h27.26.317646 -0400,
sounds/24d_mirar.wav,CVC,Stressed,Mismatch,past,num_2,0.0,0.2,0.71,0.8119545789930551,0.9389863642939812,0.9746780743634248,101,40,41,42,43,44,0,0.51,0.611954578993055,0.738986364293981,0.774678074363425,24d_mirar.wav,,d,,26,26,0,,,,,None,24,right,0,2.338664599999902,None,,,,,,,0,26,26,11,4006.8932633000077,,,,,,,,,,,,,,,,,,,,,,,4009.2421360000008,4009.2422681000025,,,,4006.881463800004,4006.8855115666706,4006.8932633000077,4006.8932633000077,0.006532700004754588,0.019424400001298636,4008.6017472000094,4009.238016400006,right,0,2.338664599999902,None,None,,,,,,,,,,,,6_L2,001,2025-04-22_14h27.14.427,LangExperimentstress,2024.2.4,59.96807299742502,2025-04-22 14h27.26.317646 -0400,
sounds/16a_llevar.wav,CVC,Stressed,Match,present,num_1,0.0,0.2,0.929084516317274,0.964936524692279,1.08,1.131864014418682,101,10,11,12,13,14,0,0.729084516317274,0.764936524692279,0.88,0.931864014418682,16a_llevar.wav,,a,,27,27,0,,,,,None,16,right,0,2.524503900000127,None,,,,,,,0,27,27,21,4009.2605256000097,,,,,,,,,,,,,,,,,,,,,,,4011.7914261000114,4011.791520700004,,,,4009.2481894000084,4009.251962666666,4009.2605256000097,4009.2605256000097,0.005895000009331852,0.01941800001077354,4011.168663900011,4011.7880397000117,right,0,2.524503900000127,None,None,,,,,,,,,,,,6_L2,001,2025-04-22_14h27.14.427,LangExperimentstress,2024.2.4,59.96807299742502,2025-04-22 14h27.26.317646 -0400,
sounds/26a_bajar.wav,CVC,Stressed,Match,present,num_1,0.0,0.2,0.77,0.8999999999999999,1.03,1.171181705729166,101,10,11,12,13,14,0,0.57,0.7,0.83,0.971181705729166,26a_bajar.wav,,a,,28,28,0,,,,,None,26,right,0,2.41415070000221,None,,,,,,,0,28,28,13,4011.810413900006,,,,,,,,,,,,,,,,,,,,,,,4014.2416762000066,4014.2417687999987,,,,4011.7987752000045,4011.801881166674,4011.810413900006,4011.810413900006,0.007316000002902001,0.019801900009042583,4013.8855201000115,4014.237629100011,right,0,2.41415070000221,None,None,,,,,,,,,,,,6_L2,001,2025-04-22_14h27.14.427,LangExperimentstress,2024.2.4,59.96807299742502,2025-04-22 14h27.26.317646 -0400,
sounds/07c_tumbar.wav,CVC,Unstressed,Match,past,num_2,0.0,0.2,0.9084024930273432,0.9247360728973012,1.143289673625005,1.154847989033482,101,30,31,32,33,34,0,0.708402493027343,0.724736072897301,0.943289673625005,0.954847989033482,07c_tumbar.wav,,c,,29,29,0,,,,,space,7,left,0,1.93315930000972,None,0.8305741000076523,None,,,,,0,29,29,6,4014.257994200001,,,,,,,,,,,,,,,,,,,,,,,4016.207049900011,4017.054352899999,,,,4014.247634500003,4014.2518414666743,4014.257994200001,4014.257994200001,0.005879300006199628,0.017162100004497916,4016.218223600008,4016.204322500009,left,0,1.93315930000972,None,space,4016.218223600008,4016.218223600008,0.8305741000076523,None,,,,,,,,6_L2,001,2025-04-22_14h27.14.427,LangExperimentstress,2024.2.4,59.96807299742502,2025-04-22 14h27.26.317646 -0400,
sounds/08d_filtrar.wav,CVC,Stressed,Mismatch,past,num_2,0.0,0.2,0.7526856695589441,0.87808115762362,1.118901843962886,1.172598812485867,101,40,41,42,43,44,0,0.552685669558944,0.67808115762362,0.918901843962886,0.972598812485867,08d_filtrar.wav,,d,,30,30,0,,,,,None,8,left,0,3.943243400004576,None,,,,,,,0,30,30,15,4017.0722217000002,,,,,,,,,,,,,,,,,,,,,,,4021.0245449000067,4021.0246369000088,,,,4017.060377200003,4017.0684700666648,4017.0722217000002,4017.0722217000002,0.006003000002237968,0.01897790000657551,4018.83589870001,4021.021484099998,left,0,3.943243400004576,None,None,,,,,,,,,,,,6_L2,001,2025-04-22_14h27.14.427,LangExperimentstress,2024.2.4,59.96807299742502,2025-04-22 14h27.26.317646 -0400,
sounds/36c_bordar.wav,CVC,Unstressed,Match,past,num_2,0.0,0.2,1.0,1.078468243634259,1.3288624855324,1.3414992042824,101,30,31,32,33,34,0,0.8,0.878468243634259,1.1288624855324,1.1414992042824,36c_bordar.wav,,c,,31,31,0,,,,,None,36,left,0,2.654717299999902,None,,,,,,,0,31,31,1,4021.041641100004,,,,,,,,,,,,,,,,,,,,,,,4023.7097577000095,4023.7098479999986,,,,4021.031515800001,4021.0354336666683,4021.041641100004,4021.041641100004,0.006892399993375875,0.018093699996825308,4023.3191989000043,4023.705352600009,left,0,2.654717299999902,None,None,,,,,,,,,,,,6_L2,001,2025-04-22_14h27.14.427,LangExperimentstress,2024.2.4,59.96807299742502,2025-04-22 14h27.26.317646 -0400,
sounds/30a_fundar.wav,CVC,Stressed,Match,present,num_1,0.0,0.2,0.77,0.91,1.112685546875,1.12,101,10,11,12,13,14,0,0.57,0.71,0.912685546875,0.92,30a_fundar.wav,,a,,32,32,0,,,,,None,30,right,0,2.04718770000909,None,,,,,,,0,32,32,36,4023.728376900006,,,,,,,,,,,,,,,,,,,,,,,4025.810333600006,4025.810428099998,,,,4023.715953799998,4023.7194509666774,4023.728376900006,4023.728376900006,0.006129799992777407,0.019482899995637126,,4025.7879572000093,right,0,2.04718770000909,None,None,,,,,,,,,,,,6_L2,001,2025-04-22_14h27.14.427,LangExperimentstress,2024.2.4,59.96807299742502,2025-04-22 14h27.26.317646 -0400,
sounds/18b_cumplir.wav,CVC,Unstressed,Mismatch,present,num_1,0.0,0.2,1.2408027271412,1.25568597366898,1.46256310040509,1.54144430700231,101,20,21,22,23,24,0,1.0408027271412,1.05568597366898,1.26256310040509,1.34144430700231,18b_cumplir.wav,,b,,33,33,0,,,,,None,18,right,0,3.0202962000039406,None,,,,,,,0,33,33,29,4025.827753000005,,,,,,,,,,,,,,,,,,,,,,,4028.8591700000106,4028.859248400011,,,,4025.817119500003,4025.818855833343,4025.827753000005,4025.827753000005,0.006715899988193996,0.01816129998769611,4028.002301100001,4028.85486040001,right,0,3.0202962000039406,None,None,,,,,,,,,,,,6_L2,001,2025-04-22_14h27.14.427,LangExperimentstress,2024.2.4,59.96807299742502,2025-04-22 14h27.26.317646 -0400,
sounds/05a_fumar.wav,CVC,Stressed,Match,present,num_1,0.0,0.2,1.15,1.36712555700231,1.48,1.56308830295138,101,10,11,12,13,14,0,0.95,1.16712555700231,1.28,1.36308830295138,05a_fumar.wav,,a,,34,34,0,,,,,None,5,left,0,2.689639199990779,None,,,,,,,0,34,34,38,4028.8781116000027,,,,,,,,,,,,,,,,,,,,,,,4031.5759737000044,4031.576057600003,,,,4028.865480200009,4028.8689727666683,4028.8781116000027,4028.8781116000027,0.006251200000406243,0.020070500002475455,4031.2359780000115,4031.5725665000064,left,0,2.689639199990779,None,None,,,,,,,,,,,,6_L2,001,2025-04-22_14h27.14.427,LangExperimentstress,2024.2.4,59.96807299742502,2025-04-22 14h27.26.317646 -0400,
sounds/02c_buscar.wav,CVC,Unstressed,Match,past,num_2,0.0,0.2,0.8700000000000001,1.07,1.26,1.40703946035879,101,30,31,32,33,34,0,0.67,0.87,1.06,1.20703946035879,02c_buscar.wav,,c,,35,35,0,,,,,None,2,left,0,2.3263279999955557,None,,,,,,,0,35,35,34,4031.5934534000116,,,,,,,,,,,,,,,,,,,,,,,4033.9254568000033,4033.925568100007,,,,4031.5822288000054,4031.5863879666763,4031.5934534000116,4031.5934534000116,0.006179600008181296,0.018233100010547787,4033.736259700003,4033.9221671999985,left,0,2.3263279999955557,None,None,,,,,,,,,,,,6_L2,001,2025-04-22_14h27.14.427,LangExperimentstress,2024.2.4,59.96807299742502,2025-04-22 14h27.26.317646 -0400,
sounds/11a_pegar.wav,CVC,Stressed,Match,present,num_1,0.0,0.2,0.8182808977343741,0.831294515585661,0.98,1.012063288108519,101,10,11,12,13,14,0,0.618280897734374,0.631294515585661,0.78,0.812063288108519,11a_pegar.wav,,a,,36,36,0,,,,,None,11,right,0,2.0585202999936882,None,,,,,,,0,36,36,3,4033.94194460001,,,,,,,,,,,,,,,,,,,,,,,4036.0093283000024,4036.009426400007,,,,4033.9315430999995,4033.9357299666776,4033.94194460001,4033.94194460001,0.005977499997243285,0.017361100006382912,4035.8855433999997,4036.005901700002,right,0,2.0585202999936882,None,None,,,,,,,,,,,,6_L2,001,2025-04-22_14h27.14.427,LangExperimentstress,2024.2.4,59.96807299742502,2025-04-22 14h27.26.317646 -0400,
sounds/29a_pesar.wav,CVC,Stressed,Match,present,num_1,0.0,0.2,0.91328417532552,0.925531286730473,1.03,1.150619522602117,101,10,11,12,13,14,0,0.71328417532552,0.725531286730473,0.83,0.950619522602117,29a_pesar.wav,,a,,37,37,0,,,,,None,29,right,0,3.195443399992655,None,,,,,,,0,37,37,32,4036.027926300012,,,,,,,,,,,,,,,,,,,,,,,4039.240925200007,4039.2410065000004,,,,4036.015814700004,4036.0196021666675,4036.027926300012,4036.027926300012,0.006408399989595637,0.019267099996795878,4037.9362002999987,4039.2378790000075,right,0,3.195443399992655,None,None,,,,,,,,,,,,6_L2,001,2025-04-22_14h27.14.427,LangExperimentstress,2024.2.4,59.96807299742502,2025-04-22 14h27.26.317646 -0400,
sounds/40c_gastar.wav,CVC,Unstressed,Match,past,num_2,0.0,0.2,0.8300000000000001,0.8400000000000001,1.163436328125,1.183149609375,101,30,31,32,33,34,0,0.63,0.64,0.963436328125,0.983149609375,40c_gastar.wav,,c,,38,38,0,,,,,None,40,left,0,2.285168499991414,None,,,,,,,0,38,38,0,4039.2585052000068,,,,,,,,,,,,,,,,,,,,,,,4041.558961700008,4041.5590628000064,,,,4039.247133900004,4039.252387866673,4039.2585052000068,4039.2585052000068,0.006139299992355518,0.018340299997362308,4041.3862204000034,4041.5553769000107,left,0,2.285168499991414,None,None,,,,,,,,,,,,6_L2,001,2025-04-22_14h27.14.427,LangExperimentstress,2024.2.4,59.96807299742502,2025-04-22 14h27.26.317646 -0400,
sounds/09c_cargar.wav,CVC,Unstressed,Match,past,num_2,0.0,0.2,0.81286744068287,0.8382251229745361,1.032634020543981,1.090594437210648,101,30,31,32,33,34,0,0.61286744068287,0.638225122974536,0.832634020543981,0.890594437210648,09c_cargar.wav,,c,,39,39,0,,,,,None,9,left,0,2.078612199999043,None,,,,,,,0,39,39,28,4041.5764923000097,,,,,,,,,,,,,,,,,,,,,,,4043.6740476999985,4043.6741238000104,,,,4041.5652063000016,4041.569496166678,4041.5764923000097,4041.5764923000097,0.006162400008179247,0.018496800010325387,4043.5025450000103,4043.671176700009,left,0,2.078612199999043,None,None,,,,,,,,,,,,6_L2,001,2025-04-22_14h27.14.427,LangExperimentstress,2024.2.4,59.96807299742502,2025-04-22 14h27.26.317646 -0400,
,,,,,,,,,,,,,,,,,,,,,,,,,,,,,,,,,,,,,,,,,,,,,,,,,,,,,,,,,,,,,,,,,,,,,,,,,,,,,,,,,,,,,,,,,,,,,,,4043.6743229999993,4043.6854662000114,4043.6854662000114,4044.9889413000055,space,1.297594100004062,None,6_L2,001,2025-04-22_14h27.14.427,LangExperimentstress,2024.2.4,59.96807299742502,2025-04-22 14h27.26.317646 -0400,
