sounds,syll,stress_unstress,suffix,present_past,corrAns,trigger_item,trigger_senonset,trigger_verbsonset,trigger_1_F0,trigger_suffix,trigger_2_F0,ID_item,ID_senonset,ID_verbonset,ID_1_F0,ID_suffix,ID_2_F0,ms_senonset,ms_verbonset,ms_1_F0,ms_suffix,ms_2_F0,file_name,sentence,cond,combo,thisN,thisTrialN,thisRepN,key_resp_4.keys,key_resp_4.corr,key_resp_4.rt,key_resp_4.duration,key_resp_5.keys,item_id,key_resp_2.keys,key_resp_2.corr,key_resp_2.rt,key_resp_2.duration,key_resp_5.rt,key_resp_5.duration,practice_trials.thisRepN,practice_trials.thisTrialN,practice_trials.thisN,practice_trials.thisIndex,experimental_trials.thisRepN,experimental_trials.thisTrialN,experimental_trials.thisN,experimental_trials.thisIndex,thisRow.t,notes,instructions.started,instr.started,key_resp.started,instructions.stopped,key_resp.keys,key_resp.rt,key_resp.duration,init_practice.started,init_practice.stopped,test_practice.started,test_sound_2.started,key_resp_4.started,polygon.started,serialPort_item_2.started,serialPort_item_2.stopped,test_sound_2.stopped,test_practice.stopped,practice_trials.key_resp_4.keys,practice_trials.key_resp_4.corr,practice_trials.key_resp_4.rt,practice_trials.key_resp_4.duration,takeabreak.started,takeabreak.stopped,practice_trials.key_resp_5.keys,init_trials.started,init_trials.stopped,test.started,test_sound.started,key_resp_2.started,polygon_2.started,serialPort_item.started,serialPort_item.stopped,test_sound.stopped,test.stopped,experimental_trials.key_resp_2.keys,experimental_trials.key_resp_2.corr,experimental_trials.key_resp_2.rt,experimental_trials.key_resp_2.duration,experimental_trials.key_resp_5.keys,text_3.started,key_resp_5.started,experimental_trials.key_resp_5.rt,experimental_trials.key_resp_5.duration,Thanks.started,text_2.started,key_resp_thanks.started,Thanks.stopped,key_resp_thanks.keys,key_resp_thanks.rt,key_resp_thanks.duration,participant,session,date,expName,psychopyVersion,frameRate,expStart,...110,version,group,...113,response_key,correct,is_correct
sounds/23a_tomar.wav,CVC,Stressed,Match,present,num_1,0,0.2,0.9453179615162032,0.95,1.08,1.158644495081018,101,10,11,12,13,14,0,0.745317961516203,0.75,0.88,0.958644495081018,1_L1_LangExperimentstress_2025-05-05_09h30.26.756.csv,NA,a,NA,0,0,0,NA,NA,NA,NA,None,23,left,0,2.3155124000040814,None,NA,NA,NA,NA,NA,NA,0,0,0,39,2811.341280599998,NA,NA,NA,NA,NA,NA,NA,NA,NA,NA,NA,NA,NA,NA,NA,NA,NA,NA,NA,NA,NA,NA,2813.6641226999927,2813.66421170003,NA,NA,NA,2811.330044500006,2811.340716033309,2811.341280599998,2811.341280599998,0.01893550000386312,0.03098600002704188,2813.2407489999896,2813.660112900019,left,0,2.3155124000040814,None,None,NA,NA,NA,NA,NA,NA,NA,NA,NA,NA,NA,1_L1,001,2025-05-05_09h30.26.756,LangExperimentstress,2024.2.4,59.96440511637471,2025-05-05 09h30.35.163719 -0400,NA,V1,L1,NA,left,TRUE,TRUE
sounds/05a_fumar.wav,CVC,Stressed,Match,present,num_1,0,0.2,1.15,1.36712555700231,1.48,1.56308830295138,101,10,11,12,13,14,0,0.95,1.16712555700231,1.28,1.36308830295138,1_L1_LangExperimentstress_2025-05-05_09h30.26.756.csv,NA,a,NA,1,1,0,NA,NA,NA,NA,None,5,left,0,2.572442399978172,None,NA,NA,NA,NA,NA,NA,0,1,1,38,2813.68372239999,NA,NA,NA,NA,NA,NA,NA,NA,NA,NA,NA,NA,NA,NA,NA,NA,NA,NA,NA,NA,NA,NA,2816.2627196999965,2816.262795799994,NA,NA,NA,2813.672057299991,2813.674175866651,2813.68372239999,2813.68372239999,0.00795960001414641,0.02054479997605085,2816.040723000013,2816.2594906000304,left,0,2.572442399978172,None,None,NA,NA,NA,NA,NA,NA,NA,NA,NA,NA,NA,1_L1,001,2025-05-05_09h30.26.756,LangExperimentstress,2024.2.4,59.96440511637471,2025-05-05 09h30.35.163719 -0400,NA,V1,L1,NA,left,TRUE,TRUE
sounds/08d_filtrar.wav,CVC,Stressed,Mismatch,past,num_2,0,0.2,0.7526856695589441,0.87808115762362,1.118901843962886,1.172598812485867,101,40,41,42,43,44,0,0.552685669558944,0.67808115762362,0.918901843962886,0.972598812485867,1_L1_LangExperimentstress_2025-05-05_09h30.26.756.csv,NA,d,NA,2,2,0,NA,NA,NA,NA,None,8,right,0,2.1776206999784335,None,NA,NA,NA,NA,NA,NA,0,2,2,15,2816.279152699979,NA,NA,NA,NA,NA,NA,NA,NA,NA,NA,NA,NA,NA,NA,NA,NA,NA,NA,NA,NA,NA,NA,2818.4653432000196,2818.4654296999797,NA,NA,NA,2816.2686692000134,2816.2738406666945,2816.279152699979,2816.279152699979,0.00590559997363016,0.0169884999631904,2818.041581999976,2818.460491899983,right,0,2.1776206999784335,None,None,NA,NA,NA,NA,NA,NA,NA,NA,NA,NA,NA,1_L1,001,2025-05-05_09h30.26.756,LangExperimentstress,2024.2.4,59.96440511637471,2025-05-05 09h30.35.163719 -0400,NA,V1,L1,NA,right,TRUE,TRUE
sounds/06d_soplar.wav,CVC,Stressed,Mismatch,past,num_2,0,0.2,0.761291666666666,0.8899999999999999,1.102139687590422,1.166665581687644,101,40,41,42,43,44,0,0.561291666666666,0.69,0.902139687590422,0.966665581687644,1_L1_LangExperimentstress_2025-05-05_09h30.26.756.csv,NA,d,NA,3,3,0,NA,NA,NA,NA,None,6,right,0,2.237826500029769,None,NA,NA,NA,NA,NA,NA,0,3,3,16,2818.4833763000206,NA,NA,NA,NA,NA,NA,NA,NA,NA,NA,NA,NA,NA,NA,NA,NA,NA,NA,NA,NA,NA,NA,2820.7297019999824,2820.7297894000076,NA,NA,NA,2818.471860599995,2818.4746242666774,2818.4833763000206,2818.4833763000206,0.00650339998537674,0.01908360002562403,2820.374991299992,2820.7264378999826,right,0,2.237826500029769,None,None,NA,NA,NA,NA,NA,NA,NA,NA,NA,NA,NA,1_L1,001,2025-05-05_09h30.26.756,LangExperimentstress,2024.2.4,59.96440511637471,2025-05-05 09h30.35.163719 -0400,NA,V1,L1,NA,right,TRUE,TRUE
sounds/31d_tocar.wav,CVC,Stressed,Mismatch,past,num_2,0,0.2,0.8493931756807,0.8650112062639721,1.006860547391531,1.049162047334928,101,40,41,42,43,44,0,0.6493931756807,0.665011206263972,0.806860547391531,0.849162047334928,1_L1_LangExperimentstress_2025-05-05_09h30.26.756.csv,NA,d,NA,4,4,0,NA,NA,NA,NA,None,31,right,0,2.2124508999986574,None,NA,NA,NA,NA,NA,NA,0,4,4,30,2820.7473532999866,NA,NA,NA,NA,NA,NA,NA,NA,NA,NA,NA,NA,NA,NA,NA,NA,NA,NA,NA,NA,NA,NA,2822.9807933000266,2822.980884300021,NA,NA,NA,2820.7365967999795,2820.740679266692,2820.7473532999866,2820.7473532999866,0.00682120001874864,0.01850360003300011,2822.6573558999808,2822.976740000013,right,0,2.2124508999986574,None,None,NA,NA,NA,NA,NA,NA,NA,NA,NA,NA,NA,1_L1,001,2025-05-05_09h30.26.756,LangExperimentstress,2024.2.4,59.96440511637471,2025-05-05 09h30.35.163719 -0400,NA,V1,L1,NA,right,TRUE,TRUE
sounds/12a_matar.wav,CVC,Stressed,Match,present,num_1,0,0.2,0.8400000000000001,0.96,1.17307472511574,1.186647497106481,101,10,11,12,13,14,0,0.64,0.76,0.97307472511574,0.986647497106481,1_L1_LangExperimentstress_2025-05-05_09h30.26.756.csv,NA,a,NA,5,5,0,NA,NA,NA,NA,None,12,left,0,2.2646372000453994,None,NA,NA,NA,NA,NA,NA,0,5,5,25,2822.999774100026,NA,NA,NA,NA,NA,NA,NA,NA,NA,NA,NA,NA,NA,NA,NA,NA,NA,NA,NA,NA,NA,NA,2825.2805512999767,2825.2806604999932,NA,NA,NA,2822.9874358000234,2822.990910066645,2822.999774100026,2822.999774100026,0.00658019998809322,0.02020509995054453,2825.1909206000273,2825.276687500009,left,0,2.2646372000453994,None,None,NA,NA,NA,NA,NA,NA,NA,NA,NA,NA,NA,1_L1,001,2025-05-05_09h30.26.756,LangExperimentstress,2024.2.4,59.96440511637471,2025-05-05 09h30.35.163719 -0400,NA,V1,L1,NA,left,TRUE,TRUE
sounds/02c_buscar.wav,CVC,Unstressed,Match,past,num_2,0,0.2,0.8700000000000001,1.07,1.26,1.40703946035879,101,30,31,32,33,34,0,0.67,0.87,1.06,1.20703946035879,1_L1_LangExperimentstress_2025-05-05_09h30.26.756.csv,NA,c,NA,6,6,0,NA,NA,NA,NA,None,2,right,0,2.302726600028109,None,NA,NA,NA,NA,NA,NA,0,6,6,34,2825.2975177000044,NA,NA,NA,NA,NA,NA,NA,NA,NA,NA,NA,NA,NA,NA,NA,NA,NA,NA,NA,NA,NA,NA,2827.613685899996,2827.613776399987,NA,NA,NA,2825.287123100017,2825.290894066686,2825.2975177000044,2825.2975177000044,0.00648189999628812,0.01773060002597049,2827.440714400029,2827.6103359999834,right,0,2.302726600028109,None,None,NA,NA,NA,NA,NA,NA,NA,NA,NA,NA,NA,1_L1,001,2025-05-05_09h30.26.756,LangExperimentstress,2024.2.4,59.96440511637471,2025-05-05 09h30.35.163719 -0400,NA,V1,L1,NA,right,TRUE,TRUE
sounds/27c_tirar.wav,CVC,Unstressed,Match,past,num_2,0,0.2,0.8119442057291659,0.8307495153356481,0.9885306495949072,0.998621303530092,101,30,31,32,33,34,0,0.611944205729166,0.630749515335648,0.788530649594907,0.798621303530092,1_L1_LangExperimentstress_2025-05-05_09h30.26.756.csv,NA,c,NA,7,7,0,NA,NA,NA,NA,None,27,right,0,2.1048322000424378,None,NA,NA,NA,NA,NA,NA,0,7,7,10,2827.63174099999,NA,NA,NA,NA,NA,NA,NA,NA,NA,NA,NA,NA,NA,NA,NA,NA,NA,NA,NA,NA,NA,NA,2829.744541299995,2829.7445835000253,NA,NA,NA,2827.6205769000226,2827.6243267666473,2827.63174099999,2827.63174099999,0.0068248999887146,0.01899630000116303,2829.6410841000034,2829.7419904000126,right,0,2.1048322000424378,None,None,NA,NA,NA,NA,NA,NA,NA,NA,NA,NA,NA,1_L1,001,2025-05-05_09h30.26.756,LangExperimentstress,2024.2.4,59.96440511637471,2025-05-05 09h30.35.163719 -0400,NA,V1,L1,NA,right,TRUE,TRUE
sounds/24d_mirar.wav,CVC,Stressed,Mismatch,past,num_2,0,0.2,0.71,0.8119545789930551,0.9389863642939812,0.9746780743634248,101,40,41,42,43,44,0,0.51,0.611954578993055,0.738986364293981,0.774678074363425,1_L1_LangExperimentstress_2025-05-05_09h30.26.756.csv,NA,d,NA,8,8,0,NA,NA,NA,NA,None,24,right,0,2.041770900017582,None,NA,NA,NA,NA,NA,NA,0,8,8,11,2829.7589294000063,NA,NA,NA,NA,NA,NA,NA,NA,NA,NA,NA,NA,NA,NA,NA,NA,NA,NA,NA,NA,NA,NA,2831.8148417000193,2831.814943799982,NA,NA,NA,2829.748456000001,2829.7573912666453,2829.7589294000063,2829.7589294000063,0.00388860004022717,0.0152467000298202,2831.474583700008,2831.8102954999777,right,0,2.041770900017582,None,None,NA,NA,NA,NA,NA,NA,NA,NA,NA,NA,NA,1_L1,001,2025-05-05_09h30.26.756,LangExperimentstress,2024.2.4,59.96440511637471,2025-05-05 09h30.35.163719 -0400,NA,V1,L1,NA,right,TRUE,TRUE
sounds/39b_manchar.wav,CVC,Unstressed,Mismatch,present,num_1,0,0.2,0.81,0.91203755787037,1.140584317129629,1.2139708912037,101,20,21,22,23,24,0,0.61,0.71203755787037,0.940584317129629,1.0139708912037,1_L1_LangExperimentstress_2025-05-05_09h30.26.756.csv,NA,b,NA,9,9,0,NA,NA,NA,NA,space,39,left,0,2.575119099987205,None,8.024361699994188,None,NA,NA,NA,NA,0,9,9,7,2831.8347246000194,NA,NA,NA,NA,NA,NA,NA,NA,NA,NA,NA,NA,NA,NA,NA,NA,NA,NA,NA,NA,NA,NA,2834.4307298000203,2842.4777161999955,NA,NA,NA,2831.8233114000177,2831.8241927666863,2831.8347246000194,2831.8347246000194,0.00845470000058412,0.02080150000983849,2834.0907113000285,2834.4271942999912,left,0,2.575119099987205,None,space,2834.441264000023,2834.441264000023,8.024361699994188,None,NA,NA,NA,NA,NA,NA,NA,1_L1,001,2025-05-05_09h30.26.756,LangExperimentstress,2024.2.4,59.96440511637471,2025-05-05 09h30.35.163719 -0400,NA,V1,L1,NA,left,TRUE,TRUE
sounds/35b_secar.wav,CVC,Unstressed,Mismatch,present,num_1,0,0.2,0.8990044921875,1.025708658854166,1.179689416956018,1.20652606336805,101,20,21,22,23,24,0,0.6990044921875,0.825708658854166,0.979689416956018,1.00652606336805,1_L1_LangExperimentstress_2025-05-05_09h30.26.756.csv,NA,b,NA,10,10,0,NA,NA,NA,NA,None,35,left,0,2.1452349000028335,None,NA,NA,NA,NA,NA,NA,0,10,10,5,2842.4955741000012,NA,NA,NA,NA,NA,NA,NA,NA,NA,NA,NA,NA,NA,NA,NA,NA,NA,NA,NA,NA,NA,NA,2844.6475296000135,2844.6476418999955,NA,NA,NA,2842.4851661000284,2842.4919212666614,2842.4955741000012,2842.4955741000012,0.0074155000038445,0.01867289998335763,2844.6413770000217,2844.6439005000284,left,0,2.1452349000028335,None,None,NA,NA,NA,NA,NA,NA,NA,NA,NA,NA,NA,1_L1,001,2025-05-05_09h30.26.756,LangExperimentstress,2024.2.4,59.96440511637471,2025-05-05 09h30.35.163719 -0400,NA,V1,L1,NA,left,TRUE,TRUE
sounds/16a_llevar.wav,CVC,Stressed,Match,present,num_1,0,0.2,0.929084516317274,0.964936524692279,1.08,1.131864014418682,101,10,11,12,13,14,0,0.729084516317274,0.764936524692279,0.88,0.931864014418682,1_L1_LangExperimentstress_2025-05-05_09h30.26.756.csv,NA,a,NA,11,11,0,NA,NA,NA,NA,None,16,left,0,1.9943835000158288,None,NA,NA,NA,NA,NA,NA,0,11,11,21,2844.66342430003,NA,NA,NA,NA,NA,NA,NA,NA,NA,NA,NA,NA,NA,NA,NA,NA,NA,NA,NA,NA,NA,NA,2846.6651078999857,2846.6651950000087,NA,NA,NA,2844.653447300021,2844.6580436666886,2844.66342430003,2844.66342430003,0.00582150003174319,0.01638580003054812,2846.5746593999793,2846.661749700026,left,0,1.9943835000158288,None,None,NA,NA,NA,NA,NA,NA,NA,NA,NA,NA,NA,1_L1,001,2025-05-05_09h30.26.756,LangExperimentstress,2024.2.4,59.96440511637471,2025-05-05 09h30.35.163719 -0400,NA,V1,L1,NA,left,TRUE,TRUE
sounds/25b_ganar.wav,CVC,Unstressed,Mismatch,present,num_1,0,0.2,1.152097938368055,1.15990068760488,1.28904165650454,1.37272500435153,101,20,21,22,23,24,0,0.952097938368055,0.95990068760488,1.08904165650454,1.17272500435153,1_L1_LangExperimentstress_2025-05-05_09h30.26.756.csv,NA,b,NA,12,12,0,NA,NA,NA,NA,None,25,left,0,2.3962909000110812,None,NA,NA,NA,NA,NA,NA,0,12,12,8,2846.6841821999988,NA,NA,NA,NA,NA,NA,NA,NA,NA,NA,NA,NA,NA,NA,NA,NA,NA,NA,NA,NA,NA,NA,2849.097905099974,2849.0980003000004,NA,NA,NA,2846.6736544999876,2846.6754397666705,2846.6841821999988,2846.6841821999988,0.00849239999661222,0.02004449995001778,2849.024464600021,2849.09454239998,left,0,2.3962909000110812,None,None,NA,NA,NA,NA,NA,NA,NA,NA,NA,NA,NA,1_L1,001,2025-05-05_09h30.26.756,LangExperimentstress,2024.2.4,59.96440511637471,2025-05-05 09h30.35.163719 -0400,NA,V1,L1,NA,left,TRUE,TRUE
sounds/04c_plantar.wav,CVC,Unstressed,Match,past,num_2,0,0.2,0.862877574458911,0.9343518689653568,1.20493812332404,1.21897569287037,101,30,31,32,33,34,0,0.662877574458911,0.734351868965357,1.00493812332404,1.01897569287037,1_L1_LangExperimentstress_2025-05-05_09h30.26.756.csv,NA,c,NA,13,13,0,NA,NA,NA,NA,None,4,right,0,1.999644699972123,None,NA,NA,NA,NA,NA,NA,0,13,13,9,2849.11346209998,NA,NA,NA,NA,NA,NA,NA,NA,NA,NA,NA,NA,NA,NA,NA,NA,NA,NA,NA,NA,NA,NA,2851.137047600001,2851.137086100003,NA,NA,NA,2849.1034282000037,2849.108339666684,2849.11346209998,2849.11346209998,0.00543909997213631,0.01641330000711605,NA,2851.1346608999884,right,0,1.999644699972123,None,None,NA,NA,NA,NA,NA,NA,NA,NA,NA,NA,NA,1_L1,001,2025-05-05_09h30.26.756,LangExperimentstress,2024.2.4,59.96440511637471,2025-05-05 09h30.35.163719 -0400,NA,V1,L1,NA,right,TRUE,TRUE
sounds/33b_culpar.wav,CVC,Unstressed,Mismatch,present,num_1,0,0.2,0.8606178431336959,0.869103678029107,1.109891641372144,1.131540467434179,101,20,21,22,23,24,0,0.660617843133696,0.669103678029107,0.909891641372144,0.931540467434179,1_L1_LangExperimentstress_2025-05-05_09h30.26.756.csv,NA,b,NA,14,14,0,NA,NA,NA,NA,None,33,left,0,2.390453699976206,None,NA,NA,NA,NA,NA,NA,0,14,14,35,2851.1532841000007,NA,NA,NA,NA,NA,NA,NA,NA,NA,NA,NA,NA,NA,NA,NA,NA,NA,NA,NA,NA,NA,NA,2853.564824800007,2853.5649112000247,NA,NA,NA,2851.142484700016,2851.1583832333063,2851.1532841000007,2851.1532841000007,0.00546129996655508,0.01741549995495006,2853.3248972999863,2853.560591200018,left,0,2.390453699976206,None,None,NA,NA,NA,NA,NA,NA,NA,NA,NA,NA,NA,1_L1,001,2025-05-05_09h30.26.756,LangExperimentstress,2024.2.4,59.96440511637471,2025-05-05 09h30.35.163719 -0400,NA,V1,L1,NA,left,TRUE,TRUE
sounds/15b_partir.wav,CVC,Unstressed,Mismatch,present,num_1,0,0.2,0.826865400752314,0.842973894883327,1.1042888772729471,1.120815958498066,101,20,21,22,23,24,0,0.626865400752314,0.642973894883327,0.904288877272947,0.920815958498066,1_L1_LangExperimentstress_2025-05-05_09h30.26.756.csv,NA,b,NA,15,15,0,NA,NA,NA,NA,None,15,left,0,2.6636461999733,None,NA,NA,NA,NA,NA,NA,0,15,15,22,2853.584786900028,NA,NA,NA,NA,NA,NA,NA,NA,NA,NA,NA,NA,NA,NA,NA,NA,NA,NA,NA,NA,NA,NA,2856.264732600015,2856.264820499986,NA,NA,NA,2853.5721843999927,2853.5749255666783,2853.584786900028,2853.584786900028,0.00729369994951412,0.02121819998137653,2855.6416585000115,2856.2612261999748,left,0,2.6636461999733,None,None,NA,NA,NA,NA,NA,NA,NA,NA,NA,NA,NA,1_L1,001,2025-05-05_09h30.26.756,LangExperimentstress,2024.2.4,59.96440511637471,2025-05-05 09h30.35.163719 -0400,NA,V1,L1,NA,left,TRUE,TRUE
sounds/26a_bajar.wav,CVC,Stressed,Match,present,num_1,0,0.2,0.77,0.8999999999999999,1.03,1.171181705729166,101,10,11,12,13,14,0,0.57,0.7,0.83,0.971181705729166,1_L1_LangExperimentstress_2025-05-05_09h30.26.756.csv,NA,a,NA,16,16,0,NA,NA,NA,NA,None,26,left,0,2.2113036999944597,None,NA,NA,NA,NA,NA,NA,0,16,16,13,2856.284710099979,NA,NA,NA,NA,NA,NA,NA,NA,NA,NA,NA,NA,NA,NA,NA,NA,NA,NA,NA,NA,NA,NA,2858.51528599998,2858.5153790999902,NA,NA,NA,2856.273114599986,2856.2753268666606,2856.284710099979,2856.284710099979,0.0083706000004895,0.02094139996916055,2858.359066099976,2858.5111297999974,left,0,2.2113036999944597,None,None,NA,NA,NA,NA,NA,NA,NA,NA,NA,NA,NA,1_L1,001,2025-05-05_09h30.26.756,LangExperimentstress,2024.2.4,59.96440511637471,2025-05-05 09h30.35.163719 -0400,NA,V1,L1,NA,left,TRUE,TRUE
sounds/40c_gastar.wav,CVC,Unstressed,Match,past,num_2,0,0.2,0.8300000000000001,0.8400000000000001,1.163436328125,1.183149609375,101,30,31,32,33,34,0,0.63,0.64,0.963436328125,0.983149609375,1_L1_LangExperimentstress_2025-05-05_09h30.26.756.csv,NA,c,NA,17,17,0,NA,NA,NA,NA,None,40,right,0,2.102425499993842,None,NA,NA,NA,NA,NA,NA,0,17,17,0,2858.5299697999726,NA,NA,NA,NA,NA,NA,NA,NA,NA,NA,NA,NA,NA,NA,NA,NA,NA,NA,NA,NA,NA,NA,2860.647344099998,2860.647447000025,NA,NA,NA,2858.5202073000255,2858.5250002666767,2858.5299697999726,2858.5299697999726,0.00482010003179311,0.01538580004125833,2860.641722499975,2860.644100299978,right,0,2.102425499993842,None,None,NA,NA,NA,NA,NA,NA,NA,NA,NA,NA,NA,1_L1,001,2025-05-05_09h30.26.756,LangExperimentstress,2024.2.4,59.96440511637471,2025-05-05 09h30.35.163719 -0400,NA,V1,L1,NA,right,TRUE,TRUE
sounds/34c_formar.wav,CVC,Unstressed,Match,past,num_2,0,0.2,0.876373676215277,0.992687651909722,1.14,1.26319767795138,101,30,31,32,33,34,0,0.676373676215277,0.792687651909722,0.94,1.06319767795138,1_L1_LangExperimentstress_2025-05-05_09h30.26.756.csv,NA,c,NA,18,18,0,NA,NA,NA,NA,None,34,right,0,2.4161910000257194,None,NA,NA,NA,NA,NA,NA,0,18,18,2,2860.6642794000218,NA,NA,NA,NA,NA,NA,NA,NA,NA,NA,NA,NA,NA,NA,NA,NA,NA,NA,NA,NA,NA,NA,2863.0969089000137,2863.096984100004,NA,NA,NA,2860.6536401999765,2860.658389166642,2860.6642794000218,2860.6642794000218,0.00621219997992739,0.01742859999649226,2862.9084229000146,2863.0939952000044,right,0,2.4161910000257194,None,None,NA,NA,NA,NA,NA,NA,NA,NA,NA,NA,NA,1_L1,001,2025-05-05_09h30.26.756,LangExperimentstress,2024.2.4,59.96440511637471,2025-05-05 09h30.35.163719 -0400,NA,V1,L1,NA,right,TRUE,TRUE
sounds/19a_marcar.wav,CVC,Stressed,Match,present,num_1,0,0.2,0.8400000000000001,0.97,1.245718359375,1.273519140625,101,10,11,12,13,14,0,0.64,0.77,1.045718359375,1.073519140625,1_L1_LangExperimentstress_2025-05-05_09h30.26.756.csv,NA,a,NA,19,19,0,NA,NA,NA,NA,space,19,left,0,2.1926402000244707,None,4.659979799995199,None,NA,NA,NA,NA,0,19,19,19,2863.113273499999,NA,NA,NA,NA,NA,NA,NA,NA,NA,NA,NA,NA,NA,NA,NA,NA,NA,NA,NA,NA,NA,NA,2865.315129399998,2869.9947180000017,NA,NA,NA,2863.1022100999835,2863.108177966675,2863.113273499999,2863.113273499999,0.00523390003945678,0.01708359998883679,2865.008345099981,2865.3118700999767,left,0,2.1926402000244707,None,space,2865.3250791999744,2865.3250791999744,4.659979799995199,None,NA,NA,NA,NA,NA,NA,NA,1_L1,001,2025-05-05_09h30.26.756,LangExperimentstress,2024.2.4,59.96440511637471,2025-05-05 09h30.35.163719 -0400,NA,V1,L1,NA,left,TRUE,TRUE
sounds/14b_borrar.wav,CVC,Unstressed,Mismatch,present,num_1,0,0.2,0.72,0.770187630208333,0.851961241319444,0.964399956597222,101,20,21,22,23,24,0,0.52,0.570187630208333,0.651961241319444,0.764399956597222,1_L1_LangExperimentstress_2025-05-05_09h30.26.756.csv,NA,b,NA,20,20,0,NA,NA,NA,NA,None,14,left,0,1.9953766000107864,None,NA,NA,NA,NA,NA,NA,0,20,20,20,2870.013345299987,NA,NA,NA,NA,NA,NA,NA,NA,NA,NA,NA,NA,NA,NA,NA,NA,NA,NA,NA,NA,NA,NA,2872.0151908000116,2872.0152816000045,NA,NA,NA,2870.0019157999777,2870.0087478666724,2870.013345299987,2870.013345299987,0.00715830002445727,0.01942620001500472,2871.975468599994,2872.011581500002,left,0,1.9953766000107864,None,None,NA,NA,NA,NA,NA,NA,NA,NA,NA,NA,NA,1_L1,001,2025-05-05_09h30.26.756,LangExperimentstress,2024.2.4,59.96440511637471,2025-05-05 09h30.35.163719 -0400,NA,V1,L1,NA,left,TRUE,TRUE
sounds/17d_tragar.wav,CVC,Stressed,Mismatch,past,num_2,0,0.2,1.070609360532407,1.117973654513888,1.30915316840277,1.35458539534397,101,40,41,42,43,44,0,0.870609360532407,0.917973654513888,1.10915316840277,1.15458539534397,1_L1_LangExperimentstress_2025-05-05_09h30.26.756.csv,NA,d,NA,21,21,0,NA,NA,NA,NA,None,17,right,0,2.293755799997598,None,NA,NA,NA,NA,NA,NA,0,21,21,26,2872.034921500017,NA,NA,NA,NA,NA,NA,NA,NA,NA,NA,NA,NA,NA,NA,NA,NA,NA,NA,NA,NA,NA,NA,2874.347666800022,2874.347767100029,NA,NA,NA,2872.022481199994,2872.025329966684,2872.034921500017,2872.034921500017,0.00730680004926398,0.02060660003917291,2874.3419193999725,2874.3444097000174,right,0,2.293755799997598,None,None,NA,NA,NA,NA,NA,NA,NA,NA,NA,NA,NA,1_L1,001,2025-05-05_09h30.26.756,LangExperimentstress,2024.2.4,59.96440511637471,2025-05-05 09h30.35.163719 -0400,NA,V1,L1,NA,right,TRUE,TRUE
sounds/28d_parar.wav,CVC,Stressed,Mismatch,past,num_2,0,0.2,0.8458860026041659,0.862313736979166,1.018194683159722,1.032797113715277,101,40,41,42,43,44,0,0.645886002604166,0.662313736979166,0.818194683159722,0.832797113715277,1_L1_LangExperimentstress_2025-05-05_09h30.26.756.csv,NA,d,NA,22,22,0,NA,NA,NA,NA,None,28,right,0,1.906989299983252,None,NA,NA,NA,NA,NA,NA,0,22,22,18,2874.3657433000044,NA,NA,NA,NA,NA,NA,NA,NA,NA,NA,NA,NA,NA,NA,NA,NA,NA,NA,NA,NA,NA,NA,2876.2809437999967,2876.2810168000287,NA,NA,NA,2874.354295200028,2874.3585860666394,2874.3657433000044,2874.3657433000044,0.00654489995213225,0.01903399999719113,2876.275593700004,2876.2779918999877,right,0,1.906989299983252,None,None,NA,NA,NA,NA,NA,NA,NA,NA,NA,NA,NA,1_L1,001,2025-05-05_09h30.26.756,LangExperimentstress,2024.2.4,59.96440511637471,2025-05-05 09h30.35.163719 -0400,NA,V1,L1,NA,right,TRUE,TRUE
sounds/22d_dejar.wav,CVC,Stressed,Mismatch,past,num_2,0,0.2,0.8500000000000001,1.02,1.152543366608796,1.28794346788194,101,40,41,42,43,44,0,0.65,0.82,0.952543366608796,1.08794346788194,1_L1_LangExperimentstress_2025-05-05_09h30.26.756.csv,NA,d,NA,23,23,0,NA,NA,NA,NA,None,22,right,0,2.1406439000274986,None,NA,NA,NA,NA,NA,NA,0,23,23,14,2876.2997906000237,NA,NA,NA,NA,NA,NA,NA,NA,NA,NA,NA,NA,NA,NA,NA,NA,NA,NA,NA,NA,NA,NA,2878.4498397000134,2878.4499279999873,NA,NA,NA,2876.28792849998,2876.2922603666707,2876.2997906000237,2876.2997906000237,0.00695300003280863,0.01981899997917935,2878.3424359000055,2878.445612600015,right,0,2.1406439000274986,None,None,NA,NA,NA,NA,NA,NA,NA,NA,NA,NA,NA,1_L1,001,2025-05-05_09h30.26.756,LangExperimentstress,2024.2.4,59.96440511637471,2025-05-05 09h30.35.163719 -0400,NA,V1,L1,NA,right,TRUE,TRUE
sounds/09c_cargar.wav,CVC,Unstressed,Match,past,num_2,0,0.2,0.81286744068287,0.8382251229745361,1.032634020543981,1.090594437210648,101,30,31,32,33,34,0,0.61286744068287,0.638225122974536,0.832634020543981,0.890594437210648,1_L1_LangExperimentstress_2025-05-05_09h30.26.756.csv,NA,c,NA,24,24,0,NA,NA,NA,NA,None,9,right,0,2.6353713999851607,None,NA,NA,NA,NA,NA,NA,0,24,24,28,2878.469713700004,NA,NA,NA,NA,NA,NA,NA,NA,NA,NA,NA,NA,NA,NA,NA,NA,NA,NA,NA,NA,NA,NA,2881.11458210001,2881.1146700999816,NA,NA,NA,2878.45770660002,2878.459703266683,2878.469713700004,2878.469713700004,0.00790910003706812,0.02057190000778064,2880.4087029999937,2881.111208599992,right,0,2.6353713999851607,None,None,NA,NA,NA,NA,NA,NA,NA,NA,NA,NA,NA,1_L1,001,2025-05-05_09h30.26.756,LangExperimentstress,2024.2.4,59.96440511637471,2025-05-05 09h30.35.163719 -0400,NA,V1,L1,NA,right,TRUE,TRUE
sounds/36c_bordar.wav,CVC,Unstressed,Match,past,num_2,0,0.2,1,1.078468243634259,1.3288624855324,1.3414992042824,101,30,31,32,33,34,0,0.8,0.878468243634259,1.1288624855324,1.1414992042824,1_L1_LangExperimentstress_2025-05-05_09h30.26.756.csv,NA,c,NA,25,25,0,NA,NA,NA,NA,None,36,right,0,2.4276080999989063,None,NA,NA,NA,NA,NA,NA,0,25,25,1,2881.1324919000035,NA,NA,NA,NA,NA,NA,NA,NA,NA,NA,NA,NA,NA,NA,NA,NA,NA,NA,NA,NA,NA,NA,2883.581977900001,2883.582111500029,NA,NA,NA,2881.1221564000007,2881.1254089666804,2881.1324919000035,2881.1324919000035,0.0074892999837175,0.01875930000096559,2883.4087636999902,2883.5779622999835,right,0,2.4276080999989063,None,None,NA,NA,NA,NA,NA,NA,NA,NA,NA,NA,NA,1_L1,001,2025-05-05_09h30.26.756,LangExperimentstress,2024.2.4,59.96440511637471,2025-05-05 09h30.35.163719 -0400,NA,V1,L1,NA,right,TRUE,TRUE
sounds/03b_limpiar.wav,CVC,Unstressed,Mismatch,present,num_1,0,0.2,0.8500000000000001,0.932367621527777,1.26878515625,1.35808463541666,101,20,21,22,23,24,0,0.65,0.732367621527777,1.06878515625,1.15808463541666,1_L1_LangExperimentstress_2025-05-05_09h30.26.756.csv,NA,b,NA,26,26,0,NA,NA,NA,NA,None,3,left,0,2.142884800035972,None,NA,NA,NA,NA,NA,NA,0,26,26,4,2883.600941099983,NA,NA,NA,NA,NA,NA,NA,NA,NA,NA,NA,NA,NA,NA,NA,NA,NA,NA,NA,NA,NA,NA,2885.765134199988,2885.765210099984,NA,NA,NA,2883.5898451000103,2883.5923578666448,2883.600941099983,2883.600941099983,0.00780099997064098,0.01978869998129084,2885.7425458999933,2885.761315700016,left,0,2.142884800035972,None,None,NA,NA,NA,NA,NA,NA,NA,NA,NA,NA,NA,1_L1,001,2025-05-05_09h30.26.756,LangExperimentstress,2024.2.4,59.96440511637471,2025-05-05 09h30.35.163719 -0400,NA,V1,L1,NA,left,TRUE,TRUE
sounds/37b_pasar.wav,CVC,Unstressed,Mismatch,present,num_1,0,0.2,1.033132486979166,1.052087565104166,1.159499674479166,1.27702115885416,101,20,21,22,23,24,0,0.833132486979166,0.852087565104166,0.959499674479166,1.07702115885416,1_L1_LangExperimentstress_2025-05-05_09h30.26.756.csv,NA,b,NA,27,27,0,NA,NA,NA,NA,None,37,left,0,2.3348513999953866,None,NA,NA,NA,NA,NA,NA,0,27,27,23,2885.785037500027,NA,NA,NA,NA,NA,NA,NA,NA,NA,NA,NA,NA,NA,NA,NA,NA,NA,NA,NA,NA,NA,NA,2888.131004200026,2888.13103400002,NA,NA,NA,2885.772180799977,2885.775498366686,2885.785037500027,2885.785037500027,0.00699359999271109,0.02090189995942637,2887.892304899986,2888.1280674000154,left,0,2.3348513999953866,None,None,NA,NA,NA,NA,NA,NA,NA,NA,NA,NA,NA,1_L1,001,2025-05-05_09h30.26.756,LangExperimentstress,2024.2.4,59.96440511637471,2025-05-05 09h30.35.163719 -0400,NA,V1,L1,NA,left,TRUE,TRUE
sounds/07c_tumbar.wav,CVC,Unstressed,Match,past,num_2,0,0.2,0.9084024930273432,0.9247360728973012,1.143289673625005,1.154847989033482,101,30,31,32,33,34,0,0.708402493027343,0.724736072897301,0.943289673625005,0.954847989033482,1_L1_LangExperimentstress_2025-05-05_09h30.26.756.csv,NA,c,NA,28,28,0,NA,NA,NA,NA,None,7,right,0,2.2477586999884807,None,NA,NA,NA,NA,NA,NA,0,28,28,6,2888.144278699998,NA,NA,NA,NA,NA,NA,NA,NA,NA,NA,NA,NA,NA,NA,NA,NA,NA,NA,NA,NA,NA,NA,2890.398248600017,2890.39833679999,NA,NA,NA,2888.1349147,2888.142009366657,2888.144278699998,2888.144278699998,0.00388929998734965,0.01391490001697093,2890.092203399982,2890.394933899981,right,0,2.2477586999884807,None,None,NA,NA,NA,NA,NA,NA,NA,NA,NA,NA,NA,1_L1,001,2025-05-05_09h30.26.756,LangExperimentstress,2024.2.4,59.96440511637471,2025-05-05 09h30.35.163719 -0400,NA,V1,L1,NA,right,TRUE,TRUE
sounds/18b_cumplir.wav,CVC,Unstressed,Mismatch,present,num_1,0,0.2,1.2408027271412,1.25568597366898,1.46256310040509,1.54144430700231,101,20,21,22,23,24,0,1.0408027271412,1.05568597366898,1.26256310040509,1.34144430700231,1_L1_LangExperimentstress_2025-05-05_09h30.26.756.csv,NA,b,NA,29,29,0,NA,NA,NA,NA,space,18,left,0,2.5097667000372894,None,7.0899578999960795,None,NA,NA,NA,NA,0,29,29,29,2890.4189846999943,NA,NA,NA,NA,NA,NA,NA,NA,NA,NA,NA,NA,NA,NA,NA,NA,NA,NA,NA,NA,NA,NA,2892.9490641999873,2900.061664799985,NA,NA,NA,2890.4062944999896,2890.4090298666893,2890.4189846999943,2890.4189846999943,0.00799149996601045,0.02161539997905492,2892.593279600027,2892.94491999998,left,0,2.5097667000372894,None,space,2892.9587434999994,2892.9587434999994,7.0899578999960795,None,NA,NA,NA,NA,NA,NA,NA,1_L1,001,2025-05-05_09h30.26.756,LangExperimentstress,2024.2.4,59.96440511637471,2025-05-05 09h30.35.163719 -0400,NA,V1,L1,NA,left,TRUE,TRUE
sounds/21a_mezclar.wav,CVC,Stressed,Match,present,num_1,0,0.2,0.78,0.9121902777777772,1.20214212962962,1.27,101,10,11,12,13,14,0,0.58,0.712190277777777,1.00214212962962,1.07,1_L1_LangExperimentstress_2025-05-05_09h30.26.756.csv,NA,a,NA,30,30,0,NA,NA,NA,NA,None,21,left,0,1.99465720000444,None,NA,NA,NA,NA,NA,NA,0,30,30,27,2900.0785166000132,NA,NA,NA,NA,NA,NA,NA,NA,NA,NA,NA,NA,NA,NA,NA,NA,NA,NA,NA,NA,NA,NA,2902.0856024000095,2902.08568389999,NA,NA,NA,2900.067380900029,2900.0760586666916,2900.0785166000132,2900.0785166000132,0.00569399999221786,0.01774159999331459,NA,2902.08136880002,left,0,1.99465720000444,None,None,NA,NA,NA,NA,NA,NA,NA,NA,NA,NA,NA,1_L1,001,2025-05-05_09h30.26.756,LangExperimentstress,2024.2.4,59.96440511637471,2025-05-05 09h30.35.163719 -0400,NA,V1,L1,NA,left,TRUE,TRUE
sounds/13c_montar.wav,CVC,Unstressed,Match,past,num_2,0,0.2,0.8800000000000001,0.98,1.24543012152777,1.2594709201388798,101,30,31,32,33,34,0,0.68,0.78,1.04543012152777,1.05947092013888,1_L1_LangExperimentstress_2025-05-05_09h30.26.756.csv,NA,c,NA,31,31,0,NA,NA,NA,NA,None,13,right,0,2.321745000022929,None,NA,NA,NA,NA,NA,NA,0,31,31,33,2902.103809399996,NA,NA,NA,NA,NA,NA,NA,NA,NA,NA,NA,NA,NA,NA,NA,NA,NA,NA,NA,NA,NA,NA,2904.4321632999927,2904.432245599979,NA,NA,NA,2902.0927914999775,2902.0930637666647,2902.103809399996,2902.103809399996,0.00713380001252517,0.01902810001047328,2904.3924123999896,2904.42899819999,right,0,2.321745000022929,None,None,NA,NA,NA,NA,NA,NA,NA,NA,NA,NA,NA,1_L1,001,2025-05-05_09h30.26.756,LangExperimentstress,2024.2.4,59.96440511637471,2025-05-05 09h30.35.163719 -0400,NA,V1,L1,NA,right,TRUE,TRUE
sounds/38b_pagar.wav,CVC,Unstressed,Mismatch,present,num_1,0,0.2,1.166737304687499,1.185271158854166,1.29521061197916,1.4055712890624898,101,20,21,22,23,24,0,0.966737304687499,0.985271158854166,1.09521061197916,1.20557128906249,1_L1_LangExperimentstress_2025-05-05_09h30.26.756.csv,NA,b,NA,32,32,0,NA,NA,NA,NA,None,38,left,0,2.166862300015054,None,NA,NA,NA,NA,NA,NA,0,32,32,17,2904.4490456000203,NA,NA,NA,NA,NA,NA,NA,NA,NA,NA,NA,NA,NA,NA,NA,NA,NA,NA,NA,NA,NA,NA,2906.6492965000216,2906.6493987999856,NA,NA,NA,2904.4388476000167,2904.4429949666414,2904.4490456000203,2904.4490456000203,0.00663930003065615,0.01773220003815367,NA,2906.6286962000304,left,0,2.166862300015054,None,None,NA,NA,NA,NA,NA,NA,NA,NA,NA,NA,NA,1_L1,001,2025-05-05_09h30.26.756,LangExperimentstress,2024.2.4,59.96440511637471,2025-05-05 09h30.35.163719 -0400,NA,V1,L1,NA,left,TRUE,TRUE
sounds/20c_cubrir.wav,CVC,Unstressed,Match,past,num_2,0,0.2,0.980138641742621,1.01,1.192436112212021,1.28412143493692,101,30,31,32,33,34,0,0.780138641742621,0.81,0.992436112212021,1.08412143493692,1_L1_LangExperimentstress_2025-05-05_09h30.26.756.csv,NA,c,NA,33,33,0,NA,NA,NA,NA,None,20,right,0,2.1477167999837548,None,NA,NA,NA,NA,NA,NA,0,33,33,31,2906.6686869999976,NA,NA,NA,NA,NA,NA,NA,NA,NA,NA,NA,NA,NA,NA,NA,NA,NA,NA,NA,NA,NA,NA,2908.8319053000305,2908.8319744999753,NA,NA,NA,2906.657356199983,2906.6593492333277,2906.6686869999976,2906.6686869999976,0.0079857999808155,0.02044529997510835,2908.809642700013,2908.828256800014,right,0,2.1477167999837548,None,None,NA,NA,NA,NA,NA,NA,NA,NA,NA,NA,NA,1_L1,001,2025-05-05_09h30.26.756,LangExperimentstress,2024.2.4,59.96440511637471,2025-05-05 09h30.35.163719 -0400,NA,V1,L1,NA,right,TRUE,TRUE
sounds/11a_pegar.wav,CVC,Stressed,Match,present,num_1,0,0.2,0.8182808977343741,0.831294515585661,0.98,1.012063288108519,101,10,11,12,13,14,0,0.618280897734374,0.631294515585661,0.78,0.812063288108519,1_L1_LangExperimentstress_2025-05-05_09h30.26.756.csv,NA,a,NA,34,34,0,NA,NA,NA,NA,None,11,left,0,2.06427580001764,None,NA,NA,NA,NA,NA,NA,0,34,34,3,2908.848337500007,NA,NA,NA,NA,NA,NA,NA,NA,NA,NA,NA,NA,NA,NA,NA,NA,NA,NA,NA,NA,NA,NA,2910.9322264000075,2910.9323136999737,NA,NA,NA,2908.83796959999,2908.8426443666726,2908.848337500007,2908.848337500007,0.00600890000350773,0.0171762999962084,2910.7930488000275,2910.928948900022,left,0,2.06427580001764,None,None,NA,NA,NA,NA,NA,NA,NA,NA,NA,NA,NA,1_L1,001,2025-05-05_09h30.26.756,LangExperimentstress,2024.2.4,59.96440511637471,2025-05-05 09h30.35.163719 -0400,NA,V1,L1,NA,left,TRUE,TRUE
sounds/10d_vender.wav,CVC,Stressed,Mismatch,past,num_2,0,0.2,0.832830209056713,0.8775468199411529,1.109501330306288,1.158928471023364,101,40,41,42,43,44,0,0.63283020905671294,0.677546819941153,0.909501330306288,0.958928471023364,1_L1_LangExperimentstress_2025-05-05_09h30.26.756.csv,NA,d,NA,35,35,0,NA,NA,NA,NA,None,10,right,0,1.9531623999937435,None,NA,NA,NA,NA,NA,NA,0,35,35,12,2910.9507126000244,NA,NA,NA,NA,NA,NA,NA,NA,NA,NA,NA,NA,NA,NA,NA,NA,NA,NA,NA,NA,NA,NA,2912.9156597999972,2912.91574929998,NA,NA,NA,2910.9395704999915,2910.9428411666927,2910.9507126000244,2910.9507126000244,0.00727980001829564,0.01935810002032667,2912.8598362000193,2912.912001300021,right,0,1.9531623999937435,None,None,NA,NA,NA,NA,NA,NA,NA,NA,NA,NA,NA,1_L1,001,2025-05-05_09h30.26.756,LangExperimentstress,2024.2.4,59.96440511637471,2025-05-05 09h30.35.163719 -0400,NA,V1,L1,NA,right,TRUE,TRUE
sounds/30a_fundar.wav,CVC,Stressed,Match,present,num_1,0,0.2,0.77,0.91,1.112685546875,1.12,101,10,11,12,13,14,0,0.57,0.71,0.912685546875,0.92,1_L1_LangExperimentstress_2025-05-05_09h30.26.756.csv,NA,a,NA,36,36,0,NA,NA,NA,NA,None,30,left,0,1.9404036000487397,None,NA,NA,NA,NA,NA,NA,0,36,36,36,2912.9329513999983,NA,NA,NA,NA,NA,NA,NA,NA,NA,NA,NA,NA,NA,NA,NA,NA,NA,NA,NA,NA,NA,NA,2914.898335099977,2914.898435899988,NA,NA,NA,2912.922847300011,2912.9261593666783,2912.9329513999983,2912.9329513999983,0.00710619997698813,0.01819259999319911,NA,2914.8789705000236,left,0,1.9404036000487397,None,None,NA,NA,NA,NA,NA,NA,NA,NA,NA,NA,NA,1_L1,001,2025-05-05_09h30.26.756,LangExperimentstress,2024.2.4,59.96440511637471,2025-05-05 09h30.35.163719 -0400,NA,V1,L1,NA,left,TRUE,TRUE
sounds/29a_pesar.wav,CVC,Stressed,Match,present,num_1,0,0.2,0.91328417532552,0.925531286730473,1.03,1.150619522602117,101,10,11,12,13,14,0,0.71328417532552,0.725531286730473,0.83,0.950619522602117,1_L1_LangExperimentstress_2025-05-05_09h30.26.756.csv,NA,a,NA,37,37,0,NA,NA,NA,NA,None,29,left,0,1.9907859999802895,None,NA,NA,NA,NA,NA,NA,0,37,37,32,2914.9152008999954,NA,NA,NA,NA,NA,NA,NA,NA,NA,NA,NA,NA,NA,NA,NA,NA,NA,NA,NA,NA,NA,NA,2916.9153941000113,2916.915480799973,NA,NA,NA,2914.904454100004,2914.9096389333217,2914.9152008999954,2914.9152008999954,0.00602660002186894,0.0178965000086464,2916.826329100004,2916.9121325000306,left,0,1.9907859999802895,None,None,NA,NA,NA,NA,NA,NA,NA,NA,NA,NA,NA,1_L1,001,2025-05-05_09h30.26.756,LangExperimentstress,2024.2.4,59.96440511637471,2025-05-05 09h30.35.163719 -0400,NA,V1,L1,NA,left,TRUE,TRUE
sounds/32d_pulsar.wav,CVC,Stressed,Mismatch,past,num_2,0,0.2,0.796440212673611,0.8294641710069439,0.99,1.097783832465277,101,40,41,42,43,44,0,0.596440212673611,0.629464171006944,0.79,0.897783832465277,1_L1_LangExperimentstress_2025-05-05_09h30.26.756.csv,NA,d,NA,38,38,0,NA,NA,NA,NA,None,32,right,0,1.995446900022216,None,NA,NA,NA,NA,NA,NA,0,38,38,24,2916.9327799999737,NA,NA,NA,NA,NA,NA,NA,NA,NA,NA,NA,NA,NA,NA,NA,NA,NA,NA,NA,NA,NA,NA,2918.948829700006,2918.9489084000234,NA,NA,NA,2916.921762300015,2916.926358066678,2916.9327799999737,2916.9327799999737,0.00629580003442242,0.01821569999447092,2918.743087699986,2918.945384700026,right,0,1.995446900022216,None,None,NA,NA,NA,NA,NA,NA,NA,NA,NA,NA,NA,1_L1,001,2025-05-05_09h30.26.756,LangExperimentstress,2024.2.4,59.96440511637471,2025-05-05 09h30.35.163719 -0400,NA,V1,L1,NA,right,TRUE,TRUE
sounds/01d_salvar.wav,CVC,Stressed,Mismatch,past,num_2,0,0.2,0.8500000000000001,0.996069502314814,1.23,1.29,101,40,41,42,43,44,0,0.65,0.796069502314814,1.03,1.09,1_L1_LangExperimentstress_2025-05-05_09h30.26.756.csv,NA,d,NA,39,39,0,NA,NA,NA,NA,None,1,right,0,2.1535519000026397,None,NA,NA,NA,NA,NA,NA,0,39,39,37,2918.9676685000304,NA,NA,NA,NA,NA,NA,NA,NA,NA,NA,NA,NA,NA,NA,NA,NA,NA,NA,NA,NA,NA,NA,2921.132302300015,2921.1323714000173,NA,NA,NA,2918.956260600011,2918.959524966664,2918.9676685000304,2918.9676685000304,0.00740249996306374,0.0197508999845013,2921.042943299981,2921.1285447999835,right,0,2.1535519000026397,None,None,NA,NA,NA,NA,NA,NA,NA,NA,NA,NA,NA,1_L1,001,2025-05-05_09h30.26.756,LangExperimentstress,2024.2.4,59.96440511637471,2025-05-05 09h30.35.163719 -0400,NA,V1,L1,NA,right,TRUE,TRUE
sounds/35b_secar.wav,CVC,Unstressed,Mismatch,present,num_1,0,0.2,0.8990044921875,1.025708658854166,1.179689416956018,1.20652606336805,101,20,21,22,23,24,0,0.6990044921875,0.825708658854166,0.979689416956018,1.00652606336805,3_L1_LangExperimentstress_2025-05-05_14h08.36.293.csv,NA,b,NA,0,0,0,NA,NA,NA,NA,None,35,right,0,4.591149399988353,None,NA,NA,NA,NA,NA,NA,0,0,0,5,4671.612820199982,NA,NA,NA,NA,NA,NA,NA,NA,NA,NA,NA,NA,NA,NA,NA,NA,NA,NA,NA,NA,NA,NA,4676.219449300028,4676.219529599941,NA,NA,NA,4671.602941099962,4671.614368133312,4671.612820199982,4671.612820199982,0.0181427999632433,0.0286301999585703,4673.76432050002,4676.216449900006,right,0,4.591149399988353,None,None,NA,NA,NA,NA,NA,NA,NA,NA,NA,NA,NA,3_L1,001,2025-05-05_14h08.36.293,LangExperimentstress,2024.2.4,60.2781111476653,2025-05-05 14h08.50.347608 -0400,NA,V1,L1,NA,right,FALSE,FALSE
sounds/11a_pegar.wav,CVC,Stressed,Match,present,num_1,0,0.2,0.8182808977343741,0.831294515585661,0.98,1.012063288108519,101,10,11,12,13,14,0,0.618280897734374,0.631294515585661,0.78,0.812063288108519,3_L1_LangExperimentstress_2025-05-05_14h08.36.293.csv,NA,a,NA,1,1,0,NA,NA,NA,NA,None,11,left,0,3.5139737999998033,None,NA,NA,NA,NA,NA,NA,0,1,1,3,4676.233911900024,NA,NA,NA,NA,NA,NA,NA,NA,NA,NA,NA,NA,NA,NA,NA,NA,NA,NA,NA,NA,NA,NA,4679.754890499928,4679.754987399967,NA,NA,NA,4676.223940399999,4676.2308536666715,4676.233911900024,4676.233911900024,0.00441379996482282,0.01525729999411851,4678.181209400005,4679.7503774000215,left,0,3.5139737999998033,None,None,NA,NA,NA,NA,NA,NA,NA,NA,NA,NA,NA,3_L1,001,2025-05-05_14h08.36.293,LangExperimentstress,2024.2.4,60.2781111476653,2025-05-05 14h08.50.347608 -0400,NA,V1,L1,NA,left,TRUE,TRUE
sounds/14b_borrar.wav,CVC,Unstressed,Mismatch,present,num_1,0,0.2,0.72,0.770187630208333,0.851961241319444,0.964399956597222,101,20,21,22,23,24,0,0.52,0.570187630208333,0.651961241319444,0.764399956597222,3_L1_LangExperimentstress_2025-05-05_14h08.36.293.csv,NA,b,NA,2,2,0,NA,NA,NA,NA,None,14,right,0,3.215359100024216,None,NA,NA,NA,NA,NA,NA,0,2,2,20,4679.772919099953,NA,NA,NA,NA,NA,NA,NA,NA,NA,NA,NA,NA,NA,NA,NA,NA,NA,NA,NA,NA,NA,NA,4683.004593799997,4683.004683999985,NA,NA,NA,4679.760120499937,4679.764368266686,4679.772919099953,4679.772919099953,0.00515179999638348,0.01918650011066347,4681.731161599921,4683.000257999927,right,0,3.215359100024216,None,None,NA,NA,NA,NA,NA,NA,NA,NA,NA,NA,NA,3_L1,001,2025-05-05_14h08.36.293,LangExperimentstress,2024.2.4,60.2781111476653,2025-05-05 14h08.50.347608 -0400,NA,V1,L1,NA,right,FALSE,FALSE
sounds/40c_gastar.wav,CVC,Unstressed,Match,past,num_2,0,0.2,0.8300000000000001,0.8400000000000001,1.163436328125,1.183149609375,101,30,31,32,33,34,0,0.63,0.64,0.963436328125,0.983149609375,3_L1_LangExperimentstress_2025-05-05_14h08.36.293.csv,NA,c,NA,3,3,0,NA,NA,NA,NA,None,40,right,0,3.4394143000245094,None,NA,NA,NA,NA,NA,NA,0,3,3,0,4683.021163799975,NA,NA,NA,NA,NA,NA,NA,NA,NA,NA,NA,NA,NA,NA,NA,NA,NA,NA,NA,NA,NA,NA,4686.47047130001,4686.4705555999535,NA,NA,NA,4683.010395799938,4683.0143135666185,4683.021163799975,4683.021163799975,0.0057331999996677,0.01760030002333223,4685.1476795999915,4686.466801700008,right,0,3.4394143000245094,None,None,NA,NA,NA,NA,NA,NA,NA,NA,NA,NA,NA,3_L1,001,2025-05-05_14h08.36.293,LangExperimentstress,2024.2.4,60.2781111476653,2025-05-05 14h08.50.347608 -0400,NA,V1,L1,NA,right,TRUE,TRUE
sounds/39b_manchar.wav,CVC,Unstressed,Mismatch,present,num_1,0,0.2,0.81,0.91203755787037,1.140584317129629,1.2139708912037,101,20,21,22,23,24,0,0.61,0.71203755787037,0.940584317129629,1.0139708912037,3_L1_LangExperimentstress_2025-05-05_14h08.36.293.csv,NA,b,NA,4,4,0,NA,NA,NA,NA,None,39,left,0,4.2758761999430135,None,NA,NA,NA,NA,NA,NA,0,4,4,7,4686.488062199962,NA,NA,NA,NA,NA,NA,NA,NA,NA,NA,NA,NA,NA,NA,NA,NA,NA,NA,NA,NA,NA,NA,4690.7710999999545,4690.771195499983,NA,NA,NA,4686.476586300007,4686.480951566602,4686.488062199962,4686.488062199962,0.00605339999310672,0.01921339996624738,4688.747719999927,4690.767107199936,left,0,4.2758761999430135,None,None,NA,NA,NA,NA,NA,NA,NA,NA,NA,NA,NA,3_L1,001,2025-05-05_14h08.36.293,LangExperimentstress,2024.2.4,60.2781111476653,2025-05-05 14h08.50.347608 -0400,NA,V1,L1,NA,left,TRUE,TRUE
sounds/15b_partir.wav,CVC,Unstressed,Mismatch,present,num_1,0,0.2,0.826865400752314,0.842973894883327,1.1042888772729471,1.120815958498066,101,20,21,22,23,24,0,0.626865400752314,0.642973894883327,0.904288877272947,0.920815958498066,3_L1_LangExperimentstress_2025-05-05_14h08.36.293.csv,NA,b,NA,5,5,0,NA,NA,NA,NA,None,15,left,0,3.1837123000295833,None,NA,NA,NA,NA,NA,NA,0,5,5,22,4690.787824799947,NA,NA,NA,NA,NA,NA,NA,NA,NA,NA,NA,NA,NA,NA,NA,NA,NA,NA,NA,NA,NA,NA,4693.986096700013,4693.986168499978,NA,NA,NA,4690.776735200023,4690.78113386664,4690.787824799947,4690.787824799947,0.00556690001394599,0.01752580003812909,4692.84749939997,4693.982731900003,left,0,3.1837123000295833,None,None,NA,NA,NA,NA,NA,NA,NA,NA,NA,NA,NA,3_L1,001,2025-05-05_14h08.36.293,LangExperimentstress,2024.2.4,60.2781111476653,2025-05-05 14h08.50.347608 -0400,NA,V1,L1,NA,left,TRUE,TRUE
sounds/07c_tumbar.wav,CVC,Unstressed,Match,past,num_2,0,0.2,0.9084024930273432,0.9247360728973012,1.143289673625005,1.154847989033482,101,30,31,32,33,34,0,0.708402493027343,0.724736072897301,0.943289673625005,0.954847989033482,3_L1_LangExperimentstress_2025-05-05_14h08.36.293.csv,NA,c,NA,6,6,0,NA,NA,NA,NA,None,7,right,0,2.651185099966824,None,NA,NA,NA,NA,NA,NA,0,6,6,6,4694.00067639997,NA,NA,NA,NA,NA,NA,NA,NA,NA,NA,NA,NA,NA,NA,NA,NA,NA,NA,NA,NA,NA,NA,4696.67045949999,4696.670553700009,NA,NA,NA,4693.990153999941,4693.997262866589,4694.00067639997,4694.00067639997,0.00399390002712607,0.01541929994709789,4695.947589399933,4696.666542799969,right,0,2.651185099966824,None,None,NA,NA,NA,NA,NA,NA,NA,NA,NA,NA,NA,3_L1,001,2025-05-05_14h08.36.293,LangExperimentstress,2024.2.4,60.2781111476653,2025-05-05 14h08.50.347608 -0400,NA,V1,L1,NA,right,TRUE,TRUE
sounds/29a_pesar.wav,CVC,Stressed,Match,present,num_1,0,0.2,0.91328417532552,0.925531286730473,1.03,1.150619522602117,101,10,11,12,13,14,0,0.71328417532552,0.725531286730473,0.83,0.950619522602117,3_L1_LangExperimentstress_2025-05-05_14h08.36.293.csv,NA,a,NA,7,7,0,NA,NA,NA,NA,None,29,left,0,2.532644800026901,None,NA,NA,NA,NA,NA,NA,0,7,7,32,4696.686577300017,NA,NA,NA,NA,NA,NA,NA,NA,NA,NA,NA,NA,NA,NA,NA,NA,NA,NA,NA,NA,NA,NA,4699.236929499952,4699.237021399953,NA,NA,NA,4696.675450699928,4696.680646066674,4696.686577300017,4696.686577300017,0.00490410008933395,0.01730150007642805,4698.597687800007,4699.233732999943,left,0,2.532644800026901,None,None,NA,NA,NA,NA,NA,NA,NA,NA,NA,NA,NA,3_L1,001,2025-05-05_14h08.36.293,LangExperimentstress,2024.2.4,60.2781111476653,2025-05-05 14h08.50.347608 -0400,NA,V1,L1,NA,left,TRUE,TRUE
sounds/16a_llevar.wav,CVC,Stressed,Match,present,num_1,0,0.2,0.929084516317274,0.964936524692279,1.08,1.131864014418682,101,10,11,12,13,14,0,0.729084516317274,0.764936524692279,0.88,0.931864014418682,3_L1_LangExperimentstress_2025-05-05_14h08.36.293.csv,NA,a,NA,8,8,0,NA,NA,NA,NA,None,16,left,0,3.031682600034401,None,NA,NA,NA,NA,NA,NA,0,8,8,21,4699.251755899924,NA,NA,NA,NA,NA,NA,NA,NA,NA,NA,NA,NA,NA,NA,NA,NA,NA,NA,NA,NA,NA,NA,4702.302949799981,4702.303016800026,NA,NA,NA,4699.241845200013,4699.247624766667,4699.251755899924,4699.251755899924,0.00482859998010098,0.01551269995979964,4701.16422560002,4702.299664199993,left,0,3.031682600034401,None,None,NA,NA,NA,NA,NA,NA,NA,NA,NA,NA,NA,3_L1,001,2025-05-05_14h08.36.293,LangExperimentstress,2024.2.4,60.2781111476653,2025-05-05 14h08.50.347608 -0400,NA,V1,L1,NA,left,TRUE,TRUE
sounds/26a_bajar.wav,CVC,Stressed,Match,present,num_1,0,0.2,0.77,0.8999999999999999,1.03,1.171181705729166,101,10,11,12,13,14,0,0.57,0.7,0.83,0.971181705729166,3_L1_LangExperimentstress_2025-05-05_14h08.36.293.csv,NA,a,NA,9,9,0,NA,NA,NA,NA,space,26,left,0,2.5505651999264956,None,21.04972740006633,None,NA,NA,NA,NA,0,9,9,13,4702.3181320999865,NA,NA,NA,NA,NA,NA,NA,NA,NA,NA,NA,NA,NA,NA,NA,NA,NA,NA,NA,NA,NA,NA,4704.886710199935,4725.950603799953,NA,NA,NA,4702.307032199984,4702.314130266666,4702.3181320999865,4702.3181320999865,0.00403569999616593,0.01611819991376251,4704.3974665999995,4704.883475899987,left,0,2.5505651999264956,None,space,4704.897695199994,4704.897695199994,21.04972740006633,None,NA,NA,NA,NA,NA,NA,NA,3_L1,001,2025-05-05_14h08.36.293,LangExperimentstress,2024.2.4,60.2781111476653,2025-05-05 14h08.50.347608 -0400,NA,V1,L1,NA,left,TRUE,TRUE
sounds/36c_bordar.wav,CVC,Unstressed,Match,past,num_2,0,0.2,1,1.078468243634259,1.3288624855324,1.3414992042824,101,30,31,32,33,34,0,0.8,0.878468243634259,1.1288624855324,1.1414992042824,3_L1_LangExperimentstress_2025-05-05_14h08.36.293.csv,NA,c,NA,10,10,0,NA,NA,NA,NA,None,36,right,0,2.4538549999706447,None,NA,NA,NA,NA,NA,NA,0,10,10,1,4725.966771700012,NA,NA,NA,NA,NA,NA,NA,NA,NA,NA,NA,NA,NA,NA,NA,NA,NA,NA,NA,NA,NA,NA,4728.43712680001,4728.437238199927,NA,NA,NA,4725.956493899983,4725.964638966605,4725.966771700012,4725.966771700012,0.00582600000780075,0.01703899994026869,4728.247542499972,4728.433759999985,right,0,2.4538549999706447,None,None,NA,NA,NA,NA,NA,NA,NA,NA,NA,NA,NA,3_L1,001,2025-05-05_14h08.36.293,LangExperimentstress,2024.2.4,60.2781111476653,2025-05-05 14h08.50.347608 -0400,NA,V1,L1,NA,right,TRUE,TRUE
sounds/31d_tocar.wav,CVC,Stressed,Mismatch,past,num_2,0,0.2,0.8493931756807,0.8650112062639721,1.006860547391531,1.049162047334928,101,40,41,42,43,44,0,0.6493931756807,0.665011206263972,0.806860547391531,0.849162047334928,3_L1_LangExperimentstress_2025-05-05_14h08.36.293.csv,NA,d,NA,11,11,0,NA,NA,NA,NA,None,31,left,0,2.6687648999504745,None,NA,NA,NA,NA,NA,NA,0,11,11,30,4728.455043900001,NA,NA,NA,NA,NA,NA,NA,NA,NA,NA,NA,NA,NA,NA,NA,NA,NA,NA,NA,NA,NA,NA,4731.137389199983,4731.137480699981,NA,NA,NA,4728.442634899926,4728.447707566669,4728.455043900001,4728.455043900001,0.00541430001612752,0.01878289994783699,4730.364302399976,4731.1333928999375,left,0,2.6687648999504745,None,None,NA,NA,NA,NA,NA,NA,NA,NA,NA,NA,NA,3_L1,001,2025-05-05_14h08.36.293,LangExperimentstress,2024.2.4,60.2781111476653,2025-05-05 14h08.50.347608 -0400,NA,V1,L1,NA,left,FALSE,FALSE
sounds/32d_pulsar.wav,CVC,Stressed,Mismatch,past,num_2,0,0.2,0.796440212673611,0.8294641710069439,0.99,1.097783832465277,101,40,41,42,43,44,0,0.596440212673611,0.629464171006944,0.79,0.897783832465277,3_L1_LangExperimentstress_2025-05-05_14h08.36.293.csv,NA,d,NA,12,12,0,NA,NA,NA,NA,None,32,right,0,2.570607600035146,None,NA,NA,NA,NA,NA,NA,0,12,12,24,4731.153966100013,NA,NA,NA,NA,NA,NA,NA,NA,NA,NA,NA,NA,NA,NA,NA,NA,NA,NA,NA,NA,NA,NA,4733.737920199928,4733.738012799935,NA,NA,NA,4731.142088600027,4731.14757886669,4731.153966100013,4731.153966100013,0.00462380005046725,0.01763430004939437,4732.9638903999585,4733.733760300034,right,0,2.570607600035146,None,None,NA,NA,NA,NA,NA,NA,NA,NA,NA,NA,NA,3_L1,001,2025-05-05_14h08.36.293,LangExperimentstress,2024.2.4,60.2781111476653,2025-05-05 14h08.50.347608 -0400,NA,V1,L1,NA,right,TRUE,TRUE
sounds/09c_cargar.wav,CVC,Unstressed,Match,past,num_2,0,0.2,0.81286744068287,0.8382251229745361,1.032634020543981,1.090594437210648,101,30,31,32,33,34,0,0.61286744068287,0.638225122974536,0.832634020543981,0.890594437210648,3_L1_LangExperimentstress_2025-05-05_14h08.36.293.csv,NA,c,NA,13,13,0,NA,NA,NA,NA,None,9,right,0,2.5751637999201193,None,NA,NA,NA,NA,NA,NA,0,13,13,28,4733.7559379999875,NA,NA,NA,NA,NA,NA,NA,NA,NA,NA,NA,NA,NA,NA,NA,NA,NA,NA,NA,NA,NA,NA,4736.337091900001,4736.337171900028,NA,NA,NA,4733.743491299974,4733.7478576666945,4733.7559379999875,4733.7559379999875,0.00549709994811564,0.0190619999775663,4735.697053499927,4736.333313499985,right,0,2.5751637999201193,None,None,NA,NA,NA,NA,NA,NA,NA,NA,NA,NA,NA,3_L1,001,2025-05-05_14h08.36.293,LangExperimentstress,2024.2.4,60.2781111476653,2025-05-05 14h08.50.347608 -0400,NA,V1,L1,NA,right,TRUE,TRUE
sounds/04c_plantar.wav,CVC,Unstressed,Match,past,num_2,0,0.2,0.862877574458911,0.9343518689653568,1.20493812332404,1.21897569287037,101,30,31,32,33,34,0,0.662877574458911,0.734351868965357,1.00493812332404,1.01897569287037,3_L1_LangExperimentstress_2025-05-05_14h08.36.293.csv,NA,c,NA,14,14,0,NA,NA,NA,NA,None,4,right,0,2.2842138000996783,None,NA,NA,NA,NA,NA,NA,0,14,14,9,4736.351276299974,NA,NA,NA,NA,NA,NA,NA,NA,NA,NA,NA,NA,NA,NA,NA,NA,NA,NA,NA,NA,NA,NA,4738.654548300023,4738.654645199946,NA,NA,NA,4736.341485599929,4736.347261166669,4736.351276299974,4736.351276299974,0.00431780004873871,0.01486770005431026,4738.397803500004,4738.650104699947,right,0,2.2842138000996783,None,None,NA,NA,NA,NA,NA,NA,NA,NA,NA,NA,NA,3_L1,001,2025-05-05_14h08.36.293,LangExperimentstress,2024.2.4,60.2781111476653,2025-05-05 14h08.50.347608 -0400,NA,V1,L1,NA,right,TRUE,TRUE
sounds/03b_limpiar.wav,CVC,Unstressed,Mismatch,present,num_1,0,0.2,0.8500000000000001,0.932367621527777,1.26878515625,1.35808463541666,101,20,21,22,23,24,0,0.65,0.732367621527777,1.06878515625,1.15808463541666,3_L1_LangExperimentstress_2025-05-05_14h08.36.293.csv,NA,b,NA,15,15,0,NA,NA,NA,NA,None,3,left,0,2.449429399915971,None,NA,NA,NA,NA,NA,NA,0,15,15,4,4738.673810800014,NA,NA,NA,NA,NA,NA,NA,NA,NA,NA,NA,NA,NA,NA,NA,NA,NA,NA,NA,NA,NA,NA,4741.138048199995,4741.1381361999665,NA,NA,NA,4738.661630999937,4738.664276566593,4738.673810800014,4738.673810800014,0.0070097999414429,0.02033129998017102,4740.8142574999365,4741.133780999982,left,0,2.449429399915971,None,None,NA,NA,NA,NA,NA,NA,NA,NA,NA,NA,NA,3_L1,001,2025-05-05_14h08.36.293,LangExperimentstress,2024.2.4,60.2781111476653,2025-05-05 14h08.50.347608 -0400,NA,V1,L1,NA,left,TRUE,TRUE
sounds/34c_formar.wav,CVC,Unstressed,Match,past,num_2,0,0.2,0.876373676215277,0.992687651909722,1.14,1.26319767795138,101,30,31,32,33,34,0,0.676373676215277,0.792687651909722,0.94,1.06319767795138,3_L1_LangExperimentstress_2025-05-05_14h08.36.293.csv,NA,c,NA,16,16,0,NA,NA,NA,NA,None,34,right,0,2.3280915999785066,None,NA,NA,NA,NA,NA,NA,0,16,16,2,4741.155457699962,NA,NA,NA,NA,NA,NA,NA,NA,NA,NA,NA,NA,NA,NA,NA,NA,NA,NA,NA,NA,NA,NA,4743.503627799975,4743.503718999971,NA,NA,NA,4741.143909599923,4741.147679466641,4741.155457699962,4741.155457699962,0.00579419999849051,0.01853190001565963,4743.397391000006,4743.499702400004,right,0,2.3280915999785066,None,None,NA,NA,NA,NA,NA,NA,NA,NA,NA,NA,NA,3_L1,001,2025-05-05_14h08.36.293,LangExperimentstress,2024.2.4,60.2781111476653,2025-05-05 14h08.50.347608 -0400,NA,V1,L1,NA,right,TRUE,TRUE
sounds/33b_culpar.wav,CVC,Unstressed,Mismatch,present,num_1,0,0.2,0.8606178431336959,0.869103678029107,1.109891641372144,1.131540467434179,101,20,21,22,23,24,0,0.660617843133696,0.669103678029107,0.909891641372144,0.931540467434179,3_L1_LangExperimentstress_2025-05-05_14h08.36.293.csv,NA,b,NA,17,17,0,NA,NA,NA,NA,None,33,left,0,3.378991900011897,None,NA,NA,NA,NA,NA,NA,0,17,17,35,4743.519879599975,NA,NA,NA,NA,NA,NA,NA,NA,NA,NA,NA,NA,NA,NA,NA,NA,NA,NA,NA,NA,NA,NA,4746.919858899957,4746.919924899994,NA,NA,NA,4743.50876279996,4743.513993166624,4743.519879599975,4743.519879599975,0.00504280009772628,0.0170335000148043,4745.697588699928,4746.916421499976,left,0,3.378991900011897,None,None,NA,NA,NA,NA,NA,NA,NA,NA,NA,NA,NA,3_L1,001,2025-05-05_14h08.36.293,LangExperimentstress,2024.2.4,60.2781111476653,2025-05-05 14h08.50.347608 -0400,NA,V1,L1,NA,left,TRUE,TRUE
sounds/24d_mirar.wav,CVC,Stressed,Mismatch,past,num_2,0,0.2,0.71,0.8119545789930551,0.9389863642939812,0.9746780743634248,101,40,41,42,43,44,0,0.51,0.611954578993055,0.738986364293981,0.774678074363425,3_L1_LangExperimentstress_2025-05-05_14h08.36.293.csv,NA,d,NA,18,18,0,NA,NA,NA,NA,None,24,right,0,3.588308300008066,None,NA,NA,NA,NA,NA,NA,0,18,18,11,4746.934745799925,NA,NA,NA,NA,NA,NA,NA,NA,NA,NA,NA,NA,NA,NA,NA,NA,NA,NA,NA,NA,NA,NA,4750.537680600013,4750.537771400006,NA,NA,NA,4746.923321700015,4746.930802466701,4746.934745799925,4746.934745799925,0.00341679994016885,0.01580439996905625,4748.647440699919,4750.533764499996,right,0,3.588308300008066,None,None,NA,NA,NA,NA,NA,NA,NA,NA,NA,NA,NA,3_L1,001,2025-05-05_14h08.36.293,LangExperimentstress,2024.2.4,60.2781111476653,2025-05-05 14h08.50.347608 -0400,NA,V1,L1,NA,right,TRUE,TRUE
sounds/10d_vender.wav,CVC,Stressed,Mismatch,past,num_2,0,0.2,0.832830209056713,0.8775468199411529,1.109501330306288,1.158928471023364,101,40,41,42,43,44,0,0.63283020905671294,0.677546819941153,0.909501330306288,0.958928471023364,3_L1_LangExperimentstress_2025-05-05_14h08.36.293.csv,NA,d,NA,19,19,0,NA,NA,NA,NA,space,10,right,0,3.4647774000186473,None,12.468195999972522,None,NA,NA,NA,NA,0,19,19,12,4750.555502999981,NA,NA,NA,NA,NA,NA,NA,NA,NA,NA,NA,NA,NA,NA,NA,NA,NA,NA,NA,NA,NA,NA,4754.036506299919,4766.532527000003,NA,NA,NA,4750.5439716999535,4750.5476382667,4750.555502999981,4750.555502999981,0.0062233000062406,0.01891520002391189,4752.464293800003,4754.032604700013,right,0,3.4647774000186473,None,space,4754.047653699934,4754.047653699934,12.468195999972522,None,NA,NA,NA,NA,NA,NA,NA,3_L1,001,2025-05-05_14h08.36.293,LangExperimentstress,2024.2.4,60.2781111476653,2025-05-05 14h08.50.347608 -0400,NA,V1,L1,NA,right,TRUE,TRUE
sounds/20c_cubrir.wav,CVC,Unstressed,Match,past,num_2,0,0.2,0.980138641742621,1.01,1.192436112212021,1.28412143493692,101,30,31,32,33,34,0,0.780138641742621,0.81,0.992436112212021,1.08412143493692,3_L1_LangExperimentstress_2025-05-05_14h08.36.293.csv,NA,c,NA,20,20,0,NA,NA,NA,NA,None,20,right,0,2.2810739999404177,None,NA,NA,NA,NA,NA,NA,0,20,20,31,4766.547838199942,NA,NA,NA,NA,NA,NA,NA,NA,NA,NA,NA,NA,NA,NA,NA,NA,NA,NA,NA,NA,NA,NA,4768.838158899976,4768.83827030001,NA,NA,NA,4766.535801300022,4766.547468466688,4766.547838199942,4766.547838199942,0.00322650000452995,0.01612559997010976,4768.680333799974,4768.834128600021,right,0,2.2810739999404177,None,None,NA,NA,NA,NA,NA,NA,NA,NA,NA,NA,NA,3_L1,001,2025-05-05_14h08.36.293,LangExperimentstress,2024.2.4,60.2781111476653,2025-05-05 14h08.50.347608 -0400,NA,V1,L1,NA,right,TRUE,TRUE
sounds/18b_cumplir.wav,CVC,Unstressed,Mismatch,present,num_1,0,0.2,1.2408027271412,1.25568597366898,1.46256310040509,1.54144430700231,101,20,21,22,23,24,0,1.0408027271412,1.05568597366898,1.26256310040509,1.34144430700231,3_L1_LangExperimentstress_2025-05-05_14h08.36.293.csv,NA,b,NA,21,21,0,NA,NA,NA,NA,None,18,left,0,2.629034199984744,None,NA,NA,NA,NA,NA,NA,0,21,21,29,4768.854058599973,NA,NA,NA,NA,NA,NA,NA,NA,NA,NA,NA,NA,NA,NA,NA,NA,NA,NA,NA,NA,NA,NA,4771.5042692999705,4771.504354000033,NA,NA,NA,4768.842930499988,4768.8482594665875,4768.854058599973,4768.854058599973,0.00465549994260072,0.01680169999599456,4771.047722299991,4771.500142399978,left,0,2.629034199984744,None,None,NA,NA,NA,NA,NA,NA,NA,NA,NA,NA,NA,3_L1,001,2025-05-05_14h08.36.293,LangExperimentstress,2024.2.4,60.2781111476653,2025-05-05 14h08.50.347608 -0400,NA,V1,L1,NA,left,TRUE,TRUE
sounds/28d_parar.wav,CVC,Stressed,Mismatch,past,num_2,0,0.2,0.8458860026041659,0.862313736979166,1.018194683159722,1.032797113715277,101,40,41,42,43,44,0,0.645886002604166,0.662313736979166,0.818194683159722,0.832797113715277,3_L1_LangExperimentstress_2025-05-05_14h08.36.293.csv,NA,d,NA,22,22,0,NA,NA,NA,NA,None,28,right,0,2.346683599986136,None,NA,NA,NA,NA,NA,NA,0,22,22,18,4771.520547599939,NA,NA,NA,NA,NA,NA,NA,NA,NA,NA,NA,NA,NA,NA,NA,NA,NA,NA,NA,NA,NA,NA,4773.888089299959,4773.88818249997,NA,NA,NA,4771.5088657999295,4771.514272666656,4771.520547599939,4771.520547599939,0.00451300002168864,0.01725669996812939,4773.430628300004,4773.883999700018,right,0,2.346683599986136,None,None,NA,NA,NA,NA,NA,NA,NA,NA,NA,NA,NA,3_L1,001,2025-05-05_14h08.36.293,LangExperimentstress,2024.2.4,60.2781111476653,2025-05-05 14h08.50.347608 -0400,NA,V1,L1,NA,right,TRUE,TRUE
sounds/01d_salvar.wav,CVC,Stressed,Mismatch,past,num_2,0,0.2,0.8500000000000001,0.996069502314814,1.23,1.29,101,40,41,42,43,44,0,0.65,0.796069502314814,1.03,1.09,3_L1_LangExperimentstress_2025-05-05_14h08.36.293.csv,NA,d,NA,23,23,0,NA,NA,NA,NA,None,1,right,0,2.8834981999825686,None,NA,NA,NA,NA,NA,NA,0,23,23,37,4773.903394899971,NA,NA,NA,NA,NA,NA,NA,NA,NA,NA,NA,NA,NA,NA,NA,NA,NA,NA,NA,NA,NA,NA,4776.804238900018,4776.804327399994,NA,NA,NA,4773.893452799937,4773.898152966638,4773.903394899971,4773.903394899971,0.00527260010130703,0.0161730000982061,4775.9643678999855,4776.7999824999715,right,0,2.8834981999825686,None,None,NA,NA,NA,NA,NA,NA,NA,NA,NA,NA,NA,3_L1,001,2025-05-05_14h08.36.293,LangExperimentstress,2024.2.4,60.2781111476653,2025-05-05 14h08.50.347608 -0400,NA,V1,L1,NA,right,TRUE,TRUE
sounds/23a_tomar.wav,CVC,Stressed,Match,present,num_1,0,0.2,0.9453179615162032,0.95,1.08,1.158644495081018,101,10,11,12,13,14,0,0.745317961516203,0.75,0.88,0.958644495081018,3_L1_LangExperimentstress_2025-05-05_14h08.36.293.csv,NA,a,NA,24,24,0,NA,NA,NA,NA,None,23,left,0,2.4852630000095814,None,NA,NA,NA,NA,NA,NA,0,24,24,39,4776.821766999958,NA,NA,NA,NA,NA,NA,NA,NA,NA,NA,NA,NA,NA,NA,NA,NA,NA,NA,NA,NA,NA,NA,4779.321092099941,4779.321183899941,NA,NA,NA,4776.809256599925,4776.814089766591,4776.821766999958,4776.821766999958,0.0049503999762237,0.01855669997166842,4778.730886999925,4779.316981399956,left,0,2.4852630000095814,None,None,NA,NA,NA,NA,NA,NA,NA,NA,NA,NA,NA,3_L1,001,2025-05-05_14h08.36.293,LangExperimentstress,2024.2.4,60.2781111476653,2025-05-05 14h08.50.347608 -0400,NA,V1,L1,NA,left,TRUE,TRUE
sounds/37b_pasar.wav,CVC,Unstressed,Mismatch,present,num_1,0,0.2,1.033132486979166,1.052087565104166,1.159499674479166,1.27702115885416,101,20,21,22,23,24,0,0.833132486979166,0.852087565104166,0.959499674479166,1.07702115885416,3_L1_LangExperimentstress_2025-05-05_14h08.36.293.csv,NA,b,NA,25,25,0,NA,NA,NA,NA,None,37,right,0,2.569948500022292,None,NA,NA,NA,NA,NA,NA,0,25,25,23,4779.337354100018,NA,NA,NA,NA,NA,NA,NA,NA,NA,NA,NA,NA,NA,NA,NA,NA,NA,NA,NA,NA,NA,NA,4781.918528199953,4781.918577099976,NA,NA,NA,4779.32624289993,4779.331099666659,4779.337354100018,4779.337354100018,0.00507569999899715,0.01733299996703863,4781.447629400005,4781.91576459998,right,0,2.569948500022292,None,None,NA,NA,NA,NA,NA,NA,NA,NA,NA,NA,NA,3_L1,001,2025-05-05_14h08.36.293,LangExperimentstress,2024.2.4,60.2781111476653,2025-05-05 14h08.50.347608 -0400,NA,V1,L1,NA,right,FALSE,FALSE
sounds/21a_mezclar.wav,CVC,Stressed,Match,present,num_1,0,0.2,0.78,0.9121902777777772,1.20214212962962,1.27,101,10,11,12,13,14,0,0.58,0.712190277777777,1.00214212962962,1.07,3_L1_LangExperimentstress_2025-05-05_14h08.36.293.csv,NA,a,NA,26,26,0,NA,NA,NA,NA,None,21,left,0,2.8803579000523314,None,NA,NA,NA,NA,NA,NA,0,26,26,27,4781.932138999982,NA,NA,NA,NA,NA,NA,NA,NA,NA,NA,NA,NA,NA,NA,NA,NA,NA,NA,NA,NA,NA,NA,4784.821145599999,4784.8212527,NA,NA,NA,4781.921605699987,4781.930645966673,4781.932138999982,4781.932138999982,0.00304109998978674,0.01440829993225634,4783.947424199956,4784.817315599939,left,0,2.8803579000523314,None,None,NA,NA,NA,NA,NA,NA,NA,NA,NA,NA,NA,3_L1,001,2025-05-05_14h08.36.293,LangExperimentstress,2024.2.4,60.2781111476653,2025-05-05 14h08.50.347608 -0400,NA,V1,L1,NA,left,TRUE,TRUE
sounds/02c_buscar.wav,CVC,Unstressed,Match,past,num_2,0,0.2,0.8700000000000001,1.07,1.26,1.40703946035879,101,30,31,32,33,34,0,0.67,0.87,1.06,1.20703946035879,3_L1_LangExperimentstress_2025-05-05_14h08.36.293.csv,NA,c,NA,27,27,0,NA,NA,NA,NA,None,2,right,0,2.717946500051766,None,NA,NA,NA,NA,NA,NA,0,27,27,34,4784.8370516999275,NA,NA,NA,NA,NA,NA,NA,NA,NA,NA,NA,NA,NA,NA,NA,NA,NA,NA,NA,NA,NA,NA,4787.570220299938,4787.5702997999615,NA,NA,NA,4784.826131800015,4784.831579566588,4784.8370516999275,4784.8370516999275,0.00488389993552118,0.0170493999030441,4786.964410899964,4787.566439300019,right,0,2.717946500051766,None,None,NA,NA,NA,NA,NA,NA,NA,NA,NA,NA,NA,3_L1,001,2025-05-05_14h08.36.293,LangExperimentstress,2024.2.4,60.2781111476653,2025-05-05 14h08.50.347608 -0400,NA,V1,L1,NA,right,TRUE,TRUE
sounds/27c_tirar.wav,CVC,Unstressed,Match,past,num_2,0,0.2,0.8119442057291659,0.8307495153356481,0.9885306495949072,0.998621303530092,101,30,31,32,33,34,0,0.611944205729166,0.630749515335648,0.788530649594907,0.798621303530092,3_L1_LangExperimentstress_2025-05-05_14h08.36.293.csv,NA,c,NA,28,28,0,NA,NA,NA,NA,None,27,right,0,1.8103575999848545,None,NA,NA,NA,NA,NA,NA,0,28,28,10,4787.58507109998,NA,NA,NA,NA,NA,NA,NA,NA,NA,NA,NA,NA,NA,NA,NA,NA,NA,NA,NA,NA,NA,NA,4789.423017700028,4789.423119099985,NA,NA,NA,4787.574943099928,4787.580965666686,4787.58507109998,4787.58507109998,0.00465739995706826,0.01555579993873834,NA,4789.40074719995,right,0,1.8103575999848545,None,None,NA,NA,NA,NA,NA,NA,NA,NA,NA,NA,NA,3_L1,001,2025-05-05_14h08.36.293,LangExperimentstress,2024.2.4,60.2781111476653,2025-05-05 14h08.50.347608 -0400,NA,V1,L1,NA,right,TRUE,TRUE
sounds/17d_tragar.wav,CVC,Stressed,Mismatch,past,num_2,0,0.2,1.070609360532407,1.117973654513888,1.30915316840277,1.35458539534397,101,40,41,42,43,44,0,0.870609360532407,0.917973654513888,1.10915316840277,1.15458539534397,3_L1_LangExperimentstress_2025-05-05_14h08.36.293.csv,NA,d,NA,29,29,0,NA,NA,NA,NA,space,17,right,0,3.5478129000402987,None,12.30067680007778,None,NA,NA,NA,NA,0,29,29,26,4789.439989299921,NA,NA,NA,NA,NA,NA,NA,NA,NA,NA,NA,NA,NA,NA,NA,NA,NA,NA,NA,NA,NA,NA,4793.005167599942,4805.333580799925,NA,NA,NA,4789.428831599944,4789.431341933268,4789.439989299921,4789.439989299921,0.00573390000499784,0.01797290006652474,4791.74747110001,4793.000579299929,right,0,3.5478129000402987,None,space,4793.0145820000325,4793.0145820000325,12.30067680007778,None,NA,NA,NA,NA,NA,NA,NA,3_L1,001,2025-05-05_14h08.36.293,LangExperimentstress,2024.2.4,60.2781111476653,2025-05-05 14h08.50.347608 -0400,NA,V1,L1,NA,right,TRUE,TRUE
sounds/22d_dejar.wav,CVC,Stressed,Mismatch,past,num_2,0,0.2,0.8500000000000001,1.02,1.152543366608796,1.28794346788194,101,40,41,42,43,44,0,0.65,0.82,0.952543366608796,1.08794346788194,3_L1_LangExperimentstress_2025-05-05_14h08.36.293.csv,NA,d,NA,30,30,0,NA,NA,NA,NA,None,22,right,0,2.653858100064099,None,NA,NA,NA,NA,NA,NA,0,30,30,14,4805.350160399976,NA,NA,NA,NA,NA,NA,NA,NA,NA,NA,NA,NA,NA,NA,NA,NA,NA,NA,NA,NA,NA,NA,4808.020894800022,4808.021023099951,NA,NA,NA,4805.339143600024,4805.347854566648,4805.350160399976,4805.350160399976,0.00554669997654855,0.01757140003610402,4807.398221699928,4808.01690639992,right,0,2.653858100064099,None,None,NA,NA,NA,NA,NA,NA,NA,NA,NA,NA,NA,3_L1,001,2025-05-05_14h08.36.293,LangExperimentstress,2024.2.4,60.2781111476653,2025-05-05 14h08.50.347608 -0400,NA,V1,L1,NA,right,TRUE,TRUE
sounds/19a_marcar.wav,CVC,Stressed,Match,present,num_1,0,0.2,0.8400000000000001,0.97,1.245718359375,1.273519140625,101,10,11,12,13,14,0,0.64,0.77,1.045718359375,1.073519140625,3_L1_LangExperimentstress_2025-05-05_14h08.36.293.csv,NA,a,NA,31,31,0,NA,NA,NA,NA,None,19,left,0,3.1031977999955416,None,NA,NA,NA,NA,NA,NA,0,31,31,19,4808.036499599984,NA,NA,NA,NA,NA,NA,NA,NA,NA,NA,NA,NA,NA,NA,NA,NA,NA,NA,NA,NA,NA,NA,4811.154303700023,4811.1543925000005,NA,NA,NA,4808.0257231,4808.030992766613,4808.036499599984,4808.036499599984,0.00471040001139044,0.01647520007099956,4809.947080800019,4811.150161500031,left,0,3.1031977999955416,None,None,NA,NA,NA,NA,NA,NA,NA,NA,NA,NA,NA,3_L1,001,2025-05-05_14h08.36.293,LangExperimentstress,2024.2.4,60.2781111476653,2025-05-05 14h08.50.347608 -0400,NA,V1,L1,NA,left,TRUE,TRUE
sounds/05a_fumar.wav,CVC,Stressed,Match,present,num_1,0,0.2,1.15,1.36712555700231,1.48,1.56308830295138,101,10,11,12,13,14,0,0.95,1.16712555700231,1.28,1.36308830295138,3_L1_LangExperimentstress_2025-05-05_14h08.36.293.csv,NA,a,NA,32,32,0,NA,NA,NA,NA,None,5,left,0,2.8420579000376165,None,NA,NA,NA,NA,NA,NA,0,32,32,38,4811.170292900002,NA,NA,NA,NA,NA,NA,NA,NA,NA,NA,NA,NA,NA,NA,NA,NA,NA,NA,NA,NA,NA,NA,4814.019497499976,4814.019574399979,NA,NA,NA,4811.159647099965,4811.164331866665,4811.170292900002,4811.170292900002,0.00526830006856471,0.0170339000178501,4813.547998299997,4814.0165141999605,left,0,2.8420579000376165,None,None,NA,NA,NA,NA,NA,NA,NA,NA,NA,NA,NA,3_L1,001,2025-05-05_14h08.36.293,LangExperimentstress,2024.2.4,60.2781111476653,2025-05-05 14h08.50.347608 -0400,NA,V1,L1,NA,left,TRUE,TRUE
sounds/08d_filtrar.wav,CVC,Stressed,Mismatch,past,num_2,0,0.2,0.7526856695589441,0.87808115762362,1.118901843962886,1.172598812485867,101,40,41,42,43,44,0,0.552685669558944,0.67808115762362,0.918901843962886,0.972598812485867,3_L1_LangExperimentstress_2025-05-05_14h08.36.293.csv,NA,d,NA,33,33,0,NA,NA,NA,NA,None,8,right,0,3.496919699944556,None,NA,NA,NA,NA,NA,NA,0,33,33,15,4814.034303900029,NA,NA,NA,NA,NA,NA,NA,NA,NA,NA,NA,NA,NA,NA,NA,NA,NA,NA,NA,NA,NA,NA,4817.5383714000345,4817.538461600023,NA,NA,NA,4814.023632100027,4814.030893866675,4814.034303900029,4814.034303900029,0.004063899978064,0.01563709997572004,4815.79765969998,4817.534328199981,right,0,3.496919699944556,None,None,NA,NA,NA,NA,NA,NA,NA,NA,NA,NA,NA,3_L1,001,2025-05-05_14h08.36.293,LangExperimentstress,2024.2.4,60.2781111476653,2025-05-05 14h08.50.347608 -0400,NA,V1,L1,NA,right,TRUE,TRUE
sounds/13c_montar.wav,CVC,Unstressed,Match,past,num_2,0,0.2,0.8800000000000001,0.98,1.24543012152777,1.2594709201388798,101,30,31,32,33,34,0,0.68,0.78,1.04543012152777,1.05947092013888,3_L1_LangExperimentstress_2025-05-05_14h08.36.293.csv,NA,c,NA,34,34,0,NA,NA,NA,NA,None,13,right,0,2.535708299954422,None,NA,NA,NA,NA,NA,NA,0,34,34,33,4817.556440300017,NA,NA,NA,NA,NA,NA,NA,NA,NA,NA,NA,NA,NA,NA,NA,NA,NA,NA,NA,NA,NA,NA,4820.104008199938,4820.104087799962,NA,NA,NA,4817.544489599939,4817.548342166589,4817.556440300017,4817.556440300017,0.0060482999542728,0.01921109994873404,4819.848566099943,4820.100283999986,right,0,2.535708299954422,None,None,NA,NA,NA,NA,NA,NA,NA,NA,NA,NA,NA,3_L1,001,2025-05-05_14h08.36.293,LangExperimentstress,2024.2.4,60.2781111476653,2025-05-05 14h08.50.347608 -0400,NA,V1,L1,NA,right,TRUE,TRUE
sounds/06d_soplar.wav,CVC,Stressed,Mismatch,past,num_2,0,0.2,0.761291666666666,0.8899999999999999,1.102139687590422,1.166665581687644,101,40,41,42,43,44,0,0.561291666666666,0.69,0.902139687590422,0.966665581687644,3_L1_LangExperimentstress_2025-05-05_14h08.36.293.csv,NA,d,NA,35,35,0,NA,NA,NA,NA,None,6,right,0,2.1662855999311432,None,NA,NA,NA,NA,NA,NA,0,35,35,16,4820.11801549996,NA,NA,NA,NA,NA,NA,NA,NA,NA,NA,NA,NA,NA,NA,NA,NA,NA,NA,NA,NA,NA,NA,4822.303258700005,4822.303364199994,NA,NA,NA,4820.108329400013,4820.114428666657,4820.11801549996,4820.11801549996,0.00424899999052286,0.01473019993863999,4821.997651199985,4822.300031599996,right,0,2.1662855999311432,None,None,NA,NA,NA,NA,NA,NA,NA,NA,NA,NA,NA,3_L1,001,2025-05-05_14h08.36.293,LangExperimentstress,2024.2.4,60.2781111476653,2025-05-05 14h08.50.347608 -0400,NA,V1,L1,NA,right,TRUE,TRUE
sounds/25b_ganar.wav,CVC,Unstressed,Mismatch,present,num_1,0,0.2,1.152097938368055,1.15990068760488,1.28904165650454,1.37272500435153,101,20,21,22,23,24,0,0.952097938368055,0.95990068760488,1.08904165650454,1.17272500435153,3_L1_LangExperimentstress_2025-05-05_14h08.36.293.csv,NA,b,NA,36,36,0,NA,NA,NA,NA,None,25,left,0,2.24272610002663,None,NA,NA,NA,NA,NA,NA,0,36,36,8,4822.321270800021,NA,NA,NA,NA,NA,NA,NA,NA,NA,NA,NA,NA,NA,NA,NA,NA,NA,NA,NA,NA,NA,NA,4824.583932899928,4824.584080400004,NA,NA,NA,4822.30985000002,4822.31475096662,4822.321270800021,4822.321270800021,0.00650739995762705,0.01909089996479451,NA,4824.567296000023,left,0,2.24272610002663,None,None,NA,NA,NA,NA,NA,NA,NA,NA,NA,NA,NA,3_L1,001,2025-05-05_14h08.36.293,LangExperimentstress,2024.2.4,60.2781111476653,2025-05-05 14h08.50.347608 -0400,NA,V1,L1,NA,left,TRUE,TRUE
sounds/30a_fundar.wav,CVC,Stressed,Match,present,num_1,0,0.2,0.77,0.91,1.112685546875,1.12,101,10,11,12,13,14,0,0.57,0.71,0.912685546875,0.92,3_L1_LangExperimentstress_2025-05-05_14h08.36.293.csv,NA,a,NA,37,37,0,NA,NA,NA,NA,None,30,left,0,2.3872678000479937,None,NA,NA,NA,NA,NA,NA,0,37,37,36,4824.599693900032,NA,NA,NA,NA,NA,NA,NA,NA,NA,NA,NA,NA,NA,NA,NA,NA,NA,NA,NA,NA,NA,NA,4827.000818200002,4827.0008452999755,NA,NA,NA,4824.589051900024,4824.597488333304,4824.599693900032,4824.599693900032,0.00498119997791945,0.01663540001027286,4826.747532300011,4826.998203099996,left,0,2.3872678000479937,None,None,NA,NA,NA,NA,NA,NA,NA,NA,NA,NA,NA,3_L1,001,2025-05-05_14h08.36.293,LangExperimentstress,2024.2.4,60.2781111476653,2025-05-05 14h08.50.347608 -0400,NA,V1,L1,NA,left,TRUE,TRUE
sounds/12a_matar.wav,CVC,Stressed,Match,present,num_1,0,0.2,0.8400000000000001,0.96,1.17307472511574,1.186647497106481,101,10,11,12,13,14,0,0.64,0.76,0.97307472511574,0.986647497106481,3_L1_LangExperimentstress_2025-05-05_14h08.36.293.csv,NA,a,NA,38,38,0,NA,NA,NA,NA,None,12,left,0,2.380522400024347,None,NA,NA,NA,NA,NA,NA,0,38,38,25,4827.014375599974,NA,NA,NA,NA,NA,NA,NA,NA,NA,NA,NA,NA,NA,NA,NA,NA,NA,NA,NA,NA,NA,NA,4829.402339399967,4829.402405800007,NA,NA,NA,4827.002641500032,4827.013567766644,4827.014375599974,4827.014375599974,0.00180379999801516,0.01423900004010647,4829.214372800023,4829.399541699968,left,0,2.380522400024347,None,None,NA,NA,NA,NA,NA,NA,NA,NA,NA,NA,NA,3_L1,001,2025-05-05_14h08.36.293,LangExperimentstress,2024.2.4,60.2781111476653,2025-05-05 14h08.50.347608 -0400,NA,V1,L1,NA,left,TRUE,TRUE
sounds/38b_pagar.wav,CVC,Unstressed,Mismatch,present,num_1,0,0.2,1.166737304687499,1.185271158854166,1.29521061197916,1.4055712890624898,101,20,21,22,23,24,0,0.966737304687499,0.985271158854166,1.09521061197916,1.20557128906249,3_L1_LangExperimentstress_2025-05-05_14h08.36.293.csv,NA,b,NA,39,39,0,NA,NA,NA,NA,None,38,right,0,2.1719288000604138,None,NA,NA,NA,NA,NA,NA,0,39,39,17,4829.415722100006,NA,NA,NA,NA,NA,NA,NA,NA,NA,NA,NA,NA,NA,NA,NA,NA,NA,NA,NA,NA,NA,NA,4831.612613699923,4831.612795000023,NA,NA,NA,4829.4059620999615,4829.414289066688,4829.415722100006,4829.415722100006,0.00356530002318322,0.01410469994880259,NA,4831.599329799938,right,0,2.1719288000604138,None,None,NA,NA,NA,NA,NA,NA,NA,NA,NA,NA,NA,3_L1,001,2025-05-05_14h08.36.293,LangExperimentstress,2024.2.4,60.2781111476653,2025-05-05 14h08.50.347608 -0400,NA,V1,L1,NA,right,FALSE,FALSE
sounds/06d_soplar.wav,CVC,Stressed,Mismatch,past,num_2,0,0.2,0.761291666666666,0.8899999999999999,1.102139687590422,1.166665581687644,101,40,41,42,43,44,0,0.561291666666666,0.69,0.902139687590422,0.966665581687644,1_L2_LangExperimentstress_2025-04-21_10h08.16.709.csv,NA,d,NA,0,0,0,NA,NA,NA,NA,None,6,left,0,5.434089499991387,None,NA,NA,NA,NA,NA,NA,0,0,0,16,3813.754917500075,NA,NA,NA,NA,NA,NA,NA,NA,NA,NA,NA,NA,NA,NA,NA,NA,NA,NA,NA,NA,NA,NA,3819.2003135001287,3819.200347700156,NA,NA,NA,3813.742497300263,3813.747308266598,3813.754917500075,3813.754917500075,0.05764599982649088,0.07103780005127192,3815.630594499875,3819.1977204000577,left,0,5.434089499991387,None,None,NA,NA,NA,NA,NA,NA,NA,NA,NA,NA,NA,1_L2,001,2025-04-21_10h08.16.709,LangExperimentstress,2024.2.4,60.251126700440025,2025-04-21 10h09.25.827904 -0400,NA,V1,L2,NA,left,FALSE,FALSE
sounds/29a_pesar.wav,CVC,Stressed,Match,present,num_1,0,0.2,0.91328417532552,0.925531286730473,1.03,1.150619522602117,101,10,11,12,13,14,0,0.71328417532552,0.725531286730473,0.83,0.950619522602117,1_L2_LangExperimentstress_2025-04-21_10h08.16.709.csv,NA,a,NA,1,1,0,NA,NA,NA,NA,None,29,left,0,3.1983345998451114,None,NA,NA,NA,NA,NA,NA,0,1,1,32,3819.2241414003074,NA,NA,NA,NA,NA,NA,NA,NA,NA,NA,NA,NA,NA,NA,NA,NA,NA,NA,NA,NA,NA,NA,3822.431717100088,3822.431753099896,NA,NA,NA,3819.21422370011,3819.229605133304,3819.2241414003074,3819.2241414003074,0.01390510005876422,0.02450399985536933,3821.146125700325,3822.430413300171,left,0,3.1983345998451114,None,None,NA,NA,NA,NA,NA,NA,NA,NA,NA,NA,NA,1_L2,001,2025-04-21_10h08.16.709,LangExperimentstress,2024.2.4,60.251126700440025,2025-04-21 10h09.25.827904 -0400,NA,V1,L2,NA,left,TRUE,TRUE
sounds/03b_limpiar.wav,CVC,Unstressed,Mismatch,present,num_1,0,0.2,0.8500000000000001,0.932367621527777,1.26878515625,1.35808463541666,101,20,21,22,23,24,0,0.65,0.732367621527777,1.06878515625,1.15808463541666,1_L2_LangExperimentstress_2025-04-21_10h08.16.709.csv,NA,b,NA,2,2,0,NA,NA,NA,NA,None,3,right,0,2.4367333999834955,None,NA,NA,NA,NA,NA,NA,0,2,2,4,3822.4563210001215,NA,NA,NA,NA,NA,NA,NA,NA,NA,NA,NA,NA,NA,NA,NA,NA,NA,NA,NA,NA,NA,NA,3824.900460800156,3824.900497500319,NA,NA,NA,3822.444916400127,3822.4459264665534,3822.4563210001215,3822.4563210001215,0.01326859975233674,0.02539529977366328,3824.6131767001934,3824.8980423002504,right,0,2.4367333999834955,None,None,NA,NA,NA,NA,NA,NA,NA,NA,NA,NA,NA,1_L2,001,2025-04-21_10h08.16.709,LangExperimentstress,2024.2.4,60.251126700440025,2025-04-21 10h09.25.827904 -0400,NA,V1,L2,NA,right,FALSE,FALSE
sounds/40c_gastar.wav,CVC,Unstressed,Match,past,num_2,0,0.2,0.8300000000000001,0.8400000000000001,1.163436328125,1.183149609375,101,30,31,32,33,34,0,0.63,0.64,0.963436328125,0.983149609375,1_L2_LangExperimentstress_2025-04-21_10h08.16.709.csv,NA,c,NA,3,3,0,NA,NA,NA,NA,None,40,right,0,5.170691099949181,None,NA,NA,NA,NA,NA,NA,0,3,3,0,3824.924484699965,NA,NA,NA,NA,NA,NA,NA,NA,NA,NA,NA,NA,NA,NA,NA,NA,NA,NA,NA,NA,NA,NA,3830.1008783001457,3830.100910600275,NA,NA,NA,3824.9151075002737,3824.92989113334,3824.924484699965,3824.924484699965,0.01462800009176135,0.0247329999692738,3827.047267800197,3830.0980394999497,right,0,5.170691099949181,None,None,NA,NA,NA,NA,NA,NA,NA,NA,NA,NA,NA,1_L2,001,2025-04-21_10h08.16.709,LangExperimentstress,2024.2.4,60.251126700440025,2025-04-21 10h09.25.827904 -0400,NA,V1,L2,NA,right,TRUE,TRUE
sounds/32d_pulsar.wav,CVC,Stressed,Mismatch,past,num_2,0,0.2,0.796440212673611,0.8294641710069439,0.99,1.097783832465277,101,40,41,42,43,44,0,0.596440212673611,0.629464171006944,0.79,0.897783832465277,1_L2_LangExperimentstress_2025-04-21_10h08.16.709.csv,NA,d,NA,4,4,0,NA,NA,NA,NA,None,32,right,0,3.002576899714768,None,NA,NA,NA,NA,NA,NA,0,4,4,24,3830.124299299903,NA,NA,NA,NA,NA,NA,NA,NA,NA,NA,NA,NA,NA,NA,NA,NA,NA,NA,NA,NA,NA,NA,3833.132357100025,3833.1323915999383,NA,NA,NA,3830.114716100041,3830.1300623334328,3830.124299299903,3830.124299299903,0.01382480002939701,0.02414740016683936,3831.946499600075,3833.130747000221,right,0,3.002576899714768,None,None,NA,NA,NA,NA,NA,NA,NA,NA,NA,NA,NA,1_L2,001,2025-04-21_10h08.16.709,LangExperimentstress,2024.2.4,60.251126700440025,2025-04-21 10h09.25.827904 -0400,NA,V1,L2,NA,right,TRUE,TRUE
sounds/26a_bajar.wav,CVC,Stressed,Match,present,num_1,0,0.2,0.77,0.8999999999999999,1.03,1.171181705729166,101,10,11,12,13,14,0,0.57,0.7,0.83,0.971181705729166,1_L2_LangExperimentstress_2025-04-21_10h08.16.709.csv,NA,a,NA,5,5,0,NA,NA,NA,NA,None,26,right,0,2.406090300064534,None,NA,NA,NA,NA,NA,NA,0,5,5,13,3833.152280500158,NA,NA,NA,NA,NA,NA,NA,NA,NA,NA,NA,NA,NA,NA,NA,NA,NA,NA,NA,NA,NA,NA,3835.566097000148,3835.566137799993,NA,NA,NA,3833.142609400209,3833.14626426675,3833.152280500158,3833.152280500158,0.01023360015824437,0.02056069998070597,3835.2295488999225,3835.5645506000146,right,0,2.406090300064534,None,None,NA,NA,NA,NA,NA,NA,NA,NA,NA,NA,NA,1_L2,001,2025-04-21_10h08.16.709,LangExperimentstress,2024.2.4,60.251126700440025,2025-04-21 10h09.25.827904 -0400,NA,V1,L2,NA,right,FALSE,FALSE
sounds/28d_parar.wav,CVC,Stressed,Mismatch,past,num_2,0,0.2,0.8458860026041659,0.862313736979166,1.018194683159722,1.032797113715277,101,40,41,42,43,44,0,0.645886002604166,0.662313736979166,0.818194683159722,0.832797113715277,1_L2_LangExperimentstress_2025-04-21_10h08.16.709.csv,NA,d,NA,6,6,0,NA,NA,NA,NA,None,28,left,0,2.1704318998381495,None,NA,NA,NA,NA,NA,NA,0,6,6,18,3835.588116300292,NA,NA,NA,NA,NA,NA,NA,NA,NA,NA,NA,NA,NA,NA,NA,NA,NA,NA,NA,NA,NA,NA,3837.766667000018,3837.7666977001354,NA,NA,NA,3835.5768583999015,3835.579323966584,3835.588116300292,3835.588116300292,0.01077950000762939,0.02262190030887723,3837.5132577000186,3837.7647215002216,left,0,2.1704318998381495,None,None,NA,NA,NA,NA,NA,NA,NA,NA,NA,NA,NA,1_L2,001,2025-04-21_10h08.16.709,LangExperimentstress,2024.2.4,60.251126700440025,2025-04-21 10h09.25.827904 -0400,NA,V1,L2,NA,left,FALSE,FALSE
sounds/34c_formar.wav,CVC,Unstressed,Match,past,num_2,0,0.2,0.876373676215277,0.992687651909722,1.14,1.26319767795138,101,30,31,32,33,34,0,0.676373676215277,0.792687651909722,0.94,1.06319767795138,1_L2_LangExperimentstress_2025-04-21_10h08.16.709.csv,NA,c,NA,7,7,0,NA,NA,NA,NA,None,34,right,0,4.519698300398886,None,NA,NA,NA,NA,NA,NA,0,7,7,2,3837.789858100005,NA,NA,NA,NA,NA,NA,NA,NA,NA,NA,NA,NA,NA,NA,NA,NA,NA,NA,NA,NA,NA,NA,3842.3160916999914,3842.316127600148,NA,NA,NA,3837.780067400075,3837.7965421333297,3837.789858100005,3837.789858100005,0.01339720003306865,0.02389680035412311,3840.030068800319,3842.3144240998663,right,0,4.519698300398886,None,None,NA,NA,NA,NA,NA,NA,NA,NA,NA,NA,NA,1_L2,001,2025-04-21_10h08.16.709,LangExperimentstress,2024.2.4,60.251126700440025,2025-04-21 10h09.25.827904 -0400,NA,V1,L2,NA,right,TRUE,TRUE
sounds/09c_cargar.wav,CVC,Unstressed,Match,past,num_2,0,0.2,0.81286744068287,0.8382251229745361,1.032634020543981,1.090594437210648,101,30,31,32,33,34,0,0.61286744068287,0.638225122974536,0.832634020543981,0.890594437210648,1_L2_LangExperimentstress_2025-04-21_10h08.16.709.csv,NA,c,NA,8,8,0,NA,NA,NA,NA,None,9,left,0,5.940067999996245,None,NA,NA,NA,NA,NA,NA,0,8,8,28,3842.3381193000823,NA,NA,NA,NA,NA,NA,NA,NA,NA,NA,NA,NA,NA,NA,NA,NA,NA,NA,NA,NA,NA,NA,3848.283990799915,3848.284028300084,NA,NA,NA,3842.327833800111,3842.329908666729,3842.3381193000823,3842.3381193000823,0.0118873999454081,0.02258020034059882,3844.279776399955,3848.281698000152,left,0,5.940067999996245,None,None,NA,NA,NA,NA,NA,NA,NA,NA,NA,NA,NA,1_L2,001,2025-04-21_10h08.16.709,LangExperimentstress,2024.2.4,60.251126700440025,2025-04-21 10h09.25.827904 -0400,NA,V1,L2,NA,left,FALSE,FALSE
sounds/04c_plantar.wav,CVC,Unstressed,Match,past,num_2,0,0.2,0.862877574458911,0.9343518689653568,1.20493812332404,1.21897569287037,101,30,31,32,33,34,0,0.662877574458911,0.734351868965357,1.00493812332404,1.01897569287037,1_L2_LangExperimentstress_2025-04-21_10h08.16.709.csv,NA,c,NA,9,9,0,NA,NA,NA,NA,space,4,right,0,2.387165099848062,None,7.860231599770486,None,NA,NA,NA,NA,0,9,9,9,3848.307668200229,NA,NA,NA,NA,NA,NA,NA,NA,NA,NA,NA,NA,NA,NA,NA,NA,NA,NA,NA,NA,NA,NA,3850.699470499996,3858.581241699867,NA,NA,NA,3848.296978000086,3848.313731233248,3848.307668200229,3848.307668200229,0.01297320006415248,0.02435890026390552,3850.364134500269,3850.6981322001666,right,0,2.387165099848062,None,space,3850.713075600099,3850.713075600099,7.860231599770486,None,NA,NA,NA,NA,NA,NA,NA,1_L2,001,2025-04-21_10h08.16.709,LangExperimentstress,2024.2.4,60.251126700440025,2025-04-21 10h09.25.827904 -0400,NA,V1,L2,NA,right,TRUE,TRUE
sounds/35b_secar.wav,CVC,Unstressed,Mismatch,present,num_1,0,0.2,0.8990044921875,1.025708658854166,1.179689416956018,1.20652606336805,101,20,21,22,23,24,0,0.6990044921875,0.825708658854166,0.979689416956018,1.00652606336805,1_L2_LangExperimentstress_2025-04-21_10h08.16.709.csv,NA,b,NA,10,10,0,NA,NA,NA,NA,None,35,right,0,3.298618200235069,None,NA,NA,NA,NA,NA,NA,0,10,10,5,3858.603338500019,NA,NA,NA,NA,NA,NA,NA,NA,NA,NA,NA,NA,NA,NA,NA,NA,NA,NA,NA,NA,NA,NA,3861.9217965998687,3861.921894100029,NA,NA,NA,3858.592393400147,3858.596787266961,3858.603338500019,3858.603338500019,0.01113949995487928,0.02277019992470741,3860.7490999000142,3861.9182891002856,right,0,3.298618200235069,None,None,NA,NA,NA,NA,NA,NA,NA,NA,NA,NA,NA,1_L2,001,2025-04-21_10h08.16.709,LangExperimentstress,2024.2.4,60.251126700440025,2025-04-21 10h09.25.827904 -0400,NA,V1,L2,NA,right,FALSE,FALSE
sounds/36c_bordar.wav,CVC,Unstressed,Match,past,num_2,0,0.2,1,1.078468243634259,1.3288624855324,1.3414992042824,101,30,31,32,33,34,0,0.8,0.878468243634259,1.1288624855324,1.1414992042824,1_L2_LangExperimentstress_2025-04-21_10h08.16.709.csv,NA,c,NA,11,11,0,NA,NA,NA,NA,None,36,left,0,3.5223635998554528,None,NA,NA,NA,NA,NA,NA,0,11,11,1,3861.955815100111,NA,NA,NA,NA,NA,NA,NA,NA,NA,NA,NA,NA,NA,NA,NA,NA,NA,NA,NA,NA,NA,NA,3865.488471799996,3865.4885626002215,NA,NA,NA,3861.945568600204,3861.948347633363,3861.955815100111,3861.955815100111,0.02369379997253418,0.0349696003831923,3864.2316891001537,3865.4843935002577,left,0,3.5223635998554528,None,None,NA,NA,NA,NA,NA,NA,NA,NA,NA,NA,NA,1_L2,001,2025-04-21_10h08.16.709,LangExperimentstress,2024.2.4,60.251126700440025,2025-04-21 10h09.25.827904 -0400,NA,V1,L2,NA,left,FALSE,FALSE
sounds/11a_pegar.wav,CVC,Stressed,Match,present,num_1,0,0.2,0.8182808977343741,0.831294515585661,0.98,1.012063288108519,101,10,11,12,13,14,0,0.618280897734374,0.631294515585661,0.78,0.812063288108519,1_L2_LangExperimentstress_2025-04-21_10h08.16.709.csv,NA,a,NA,12,12,0,NA,NA,NA,NA,None,11,left,0,2.3963736998848617,None,NA,NA,NA,NA,NA,NA,0,12,12,3,3865.5287224003114,NA,NA,NA,NA,NA,NA,NA,NA,NA,NA,NA,NA,NA,NA,NA,NA,NA,NA,NA,NA,NA,NA,3867.939187299926,3867.939369600266,NA,NA,NA,3865.517024700064,3865.53149120016,3865.5287224003114,3865.5287224003114,0.02850030036643147,0.04143800027668476,3867.481507100165,3867.934944800101,left,0,2.3963736998848617,None,None,NA,NA,NA,NA,NA,NA,NA,NA,NA,NA,NA,1_L2,001,2025-04-21_10h08.16.709,LangExperimentstress,2024.2.4,60.251126700440025,2025-04-21 10h09.25.827904 -0400,NA,V1,L2,NA,left,TRUE,TRUE
sounds/23a_tomar.wav,CVC,Stressed,Match,present,num_1,0,0.2,0.9453179615162032,0.95,1.08,1.158644495081018,101,10,11,12,13,14,0,0.745317961516203,0.75,0.88,0.958644495081018,1_L2_LangExperimentstress_2025-04-21_10h08.16.709.csv,NA,a,NA,13,13,0,NA,NA,NA,NA,None,23,right,0,2.1231901003047824,None,NA,NA,NA,NA,NA,NA,0,13,13,39,3867.978740800172,NA,NA,NA,NA,NA,NA,NA,NA,NA,NA,NA,NA,NA,NA,NA,NA,NA,NA,NA,NA,NA,NA,3870.1191774001345,3870.1192085999064,NA,NA,NA,3867.967714600265,3867.981983800139,3867.978740800172,3867.978740800172,0.02837570011615753,0.04058480029925704,3869.880963699892,3870.116045699921,right,0,2.1231901003047824,None,None,NA,NA,NA,NA,NA,NA,NA,NA,NA,NA,NA,1_L2,001,2025-04-21_10h08.16.709,LangExperimentstress,2024.2.4,60.251126700440025,2025-04-21 10h09.25.827904 -0400,NA,V1,L2,NA,right,FALSE,FALSE
sounds/16a_llevar.wav,CVC,Stressed,Match,present,num_1,0,0.2,0.929084516317274,0.964936524692279,1.08,1.131864014418682,101,10,11,12,13,14,0,0.729084516317274,0.764936524692279,0.88,0.931864014418682,1_L2_LangExperimentstress_2025-04-21_10h08.16.709.csv,NA,a,NA,14,14,0,NA,NA,NA,NA,None,16,right,0,4.094507500063628,None,NA,NA,NA,NA,NA,NA,0,14,14,21,3870.1433466002345,NA,NA,NA,NA,NA,NA,NA,NA,NA,NA,NA,NA,NA,NA,NA,NA,NA,NA,NA,NA,NA,NA,3874.250344400294,3874.25037829997,NA,NA,NA,3870.1331950998865,3870.147963733537,3870.1433466002345,3870.1433466002345,0.01400649966672062,0.02488579973578453,3872.0641713002697,3874.2486553001218,right,0,4.094507500063628,None,None,NA,NA,NA,NA,NA,NA,NA,NA,NA,NA,NA,1_L2,001,2025-04-21_10h08.16.709,LangExperimentstress,2024.2.4,60.251126700440025,2025-04-21 10h09.25.827904 -0400,NA,V1,L2,NA,right,FALSE,FALSE
sounds/20c_cubrir.wav,CVC,Unstressed,Match,past,num_2,0,0.2,0.980138641742621,1.01,1.192436112212021,1.28412143493692,101,30,31,32,33,34,0,0.780138641742621,0.81,0.992436112212021,1.08412143493692,1_L2_LangExperimentstress_2025-04-21_10h08.16.709.csv,NA,c,NA,15,15,0,NA,NA,NA,NA,None,20,right,0,4.2302179001271725,None,NA,NA,NA,NA,NA,NA,0,15,15,31,3874.272083099931,NA,NA,NA,NA,NA,NA,NA,NA,NA,NA,NA,NA,NA,NA,NA,NA,NA,NA,NA,NA,NA,NA,3878.5162351001054,3878.51627760008,NA,NA,NA,3874.2633123002015,3874.264198866735,3874.272083099931,3874.272083099931,0.01296469988301396,0.02222870010882616,3876.413633100223,3878.514826500322,right,0,4.2302179001271725,None,None,NA,NA,NA,NA,NA,NA,NA,NA,NA,NA,NA,1_L2,001,2025-04-21_10h08.16.709,LangExperimentstress,2024.2.4,60.251126700440025,2025-04-21 10h09.25.827904 -0400,NA,V1,L2,NA,right,TRUE,TRUE
sounds/25b_ganar.wav,CVC,Unstressed,Mismatch,present,num_1,0,0.2,1.152097938368055,1.15990068760488,1.28904165650454,1.37272500435153,101,20,21,22,23,24,0,0.952097938368055,0.95990068760488,1.08904165650454,1.17272500435153,1_L2_LangExperimentstress_2025-04-21_10h08.16.709.csv,NA,b,NA,16,16,0,NA,NA,NA,NA,None,25,right,0,2.378600699827075,None,NA,NA,NA,NA,NA,NA,0,16,16,8,3878.538273199927,NA,NA,NA,NA,NA,NA,NA,NA,NA,NA,NA,NA,NA,NA,NA,NA,NA,NA,NA,NA,NA,NA,3880.935409700032,3880.935451600235,NA,NA,NA,3878.529462399893,3878.530425566777,3878.538273199927,3878.538273199927,0.01329879974946379,0.02273909980431199,3880.881627100054,3880.9327007001266,right,0,2.378600699827075,None,None,NA,NA,NA,NA,NA,NA,NA,NA,NA,NA,NA,1_L2,001,2025-04-21_10h08.16.709,LangExperimentstress,2024.2.4,60.251126700440025,2025-04-21 10h09.25.827904 -0400,NA,V1,L2,NA,right,FALSE,FALSE
sounds/22d_dejar.wav,CVC,Stressed,Mismatch,past,num_2,0,0.2,0.8500000000000001,1.02,1.152543366608796,1.28794346788194,101,40,41,42,43,44,0,0.65,0.82,0.952543366608796,1.08794346788194,1_L2_LangExperimentstress_2025-04-21_10h08.16.709.csv,NA,d,NA,17,17,0,NA,NA,NA,NA,None,22,left,0,2.7742770998738706,None,NA,NA,NA,NA,NA,NA,0,17,17,14,3880.9596306001768,NA,NA,NA,NA,NA,NA,NA,NA,NA,NA,NA,NA,NA,NA,NA,NA,NA,NA,NA,NA,NA,NA,3883.752100800164,3883.752140100114,NA,NA,NA,3880.9499743999913,3880.9646174336167,3880.9596306001768,3880.9596306001768,0.01454320037737488,0.02480680029839277,3883.0138948000968,3883.7496557002887,left,0,2.7742770998738706,None,None,NA,NA,NA,NA,NA,NA,NA,NA,NA,NA,NA,1_L2,001,2025-04-21_10h08.16.709,LangExperimentstress,2024.2.4,60.251126700440025,2025-04-21 10h09.25.827904 -0400,NA,V1,L2,NA,left,FALSE,FALSE
sounds/19a_marcar.wav,CVC,Stressed,Match,present,num_1,0,0.2,0.8400000000000001,0.97,1.245718359375,1.273519140625,101,10,11,12,13,14,0,0.64,0.77,1.045718359375,1.073519140625,1_L2_LangExperimentstress_2025-04-21_10h08.16.709.csv,NA,a,NA,18,18,0,NA,NA,NA,NA,None,19,right,0,2.981591399759054,None,NA,NA,NA,NA,NA,NA,0,18,18,19,3883.776206600014,NA,NA,NA,NA,NA,NA,NA,NA,NA,NA,NA,NA,NA,NA,NA,NA,NA,NA,NA,NA,NA,NA,3886.7666156999767,3886.766646500211,NA,NA,NA,3883.766995300073,3883.7814893332625,3883.776206600014,3883.776206600014,0.01487639965489506,0.02472669957205653,3885.680428599939,3886.76528700022,right,0,2.981591399759054,None,None,NA,NA,NA,NA,NA,NA,NA,NA,NA,NA,NA,1_L2,001,2025-04-21_10h08.16.709,LangExperimentstress,2024.2.4,60.251126700440025,2025-04-21 10h09.25.827904 -0400,NA,V1,L2,NA,right,FALSE,FALSE
sounds/24d_mirar.wav,CVC,Stressed,Mismatch,past,num_2,0,0.2,0.71,0.8119545789930551,0.9389863642939812,0.9746780743634248,101,40,41,42,43,44,0,0.51,0.611954578993055,0.738986364293981,0.774678074363425,1_L2_LangExperimentstress_2025-04-21_10h08.16.709.csv,NA,d,NA,19,19,0,NA,NA,NA,NA,space,24,right,0,2.0475914999842644,None,9.933176300022753,None,NA,NA,NA,NA,0,19,19,11,3886.789496200159,NA,NA,NA,NA,NA,NA,NA,NA,NA,NA,NA,NA,NA,NA,NA,NA,NA,NA,NA,NA,NA,NA,3888.85014680028,3898.7994663999416,NA,NA,NA,3886.7789610000327,3886.780592666535,3886.789496200159,3886.789496200159,0.01255169976502657,0.02332099992781877,3888.4975211001,3888.8488413998857,right,0,2.0475914999842644,None,space,3888.86397340009,3888.86397340009,9.933176300022753,None,NA,NA,NA,NA,NA,NA,NA,1_L2,001,2025-04-21_10h08.16.709,LangExperimentstress,2024.2.4,60.251126700440025,2025-04-21 10h09.25.827904 -0400,NA,V1,L2,NA,right,TRUE,TRUE
sounds/27c_tirar.wav,CVC,Unstressed,Match,past,num_2,0,0.2,0.8119442057291659,0.8307495153356481,0.9885306495949072,0.998621303530092,101,30,31,32,33,34,0,0.611944205729166,0.630749515335648,0.788530649594907,0.798621303530092,1_L2_LangExperimentstress_2025-04-21_10h08.16.709.csv,NA,c,NA,20,20,0,NA,NA,NA,NA,None,27,left,0,2.390546999871731,None,NA,NA,NA,NA,NA,NA,0,20,20,10,3898.823254700285,NA,NA,NA,NA,NA,NA,NA,NA,NA,NA,NA,NA,NA,NA,NA,NA,NA,NA,NA,NA,NA,NA,3901.218270600308,3901.218307800126,NA,NA,NA,3898.8132646000017,3898.814792766764,3898.823254700285,3898.823254700285,0.01387029979377985,0.02453560009598732,3900.830825600307,3901.2162876999937,left,0,2.390546999871731,None,None,NA,NA,NA,NA,NA,NA,NA,NA,NA,NA,NA,1_L2,001,2025-04-21_10h08.16.709,LangExperimentstress,2024.2.4,60.251126700440025,2025-04-21 10h09.25.827904 -0400,NA,V1,L2,NA,left,FALSE,FALSE
sounds/39b_manchar.wav,CVC,Unstressed,Mismatch,present,num_1,0,0.2,0.81,0.91203755787037,1.140584317129629,1.2139708912037,101,20,21,22,23,24,0,0.61,0.71203755787037,0.940584317129629,1.0139708912037,1_L2_LangExperimentstress_2025-04-21_10h08.16.709.csv,NA,b,NA,21,21,0,NA,NA,NA,NA,None,39,right,0,2.554835900198668,None,NA,NA,NA,NA,NA,NA,0,21,21,7,3901.242177600041,NA,NA,NA,NA,NA,NA,NA,NA,NA,NA,NA,NA,NA,NA,NA,NA,NA,NA,NA,NA,NA,NA,3903.800430899952,3903.800462800078,NA,NA,NA,3901.2316696001217,3901.248261533337,3901.242177600041,3901.242177600041,0.01342099998146295,0.02459189994260668,3903.497450400144,3903.7991824001074,right,0,2.554835900198668,None,None,NA,NA,NA,NA,NA,NA,NA,NA,NA,NA,NA,1_L2,001,2025-04-21_10h08.16.709,LangExperimentstress,2024.2.4,60.251126700440025,2025-04-21 10h09.25.827904 -0400,NA,V1,L2,NA,right,FALSE,FALSE
sounds/10d_vender.wav,CVC,Stressed,Mismatch,past,num_2,0,0.2,0.832830209056713,0.8775468199411529,1.109501330306288,1.158928471023364,101,40,41,42,43,44,0,0.63283020905671294,0.677546819941153,0.909501330306288,0.958928471023364,1_L2_LangExperimentstress_2025-04-21_10h08.16.709.csv,NA,d,NA,22,22,0,NA,NA,NA,NA,None,10,left,0,2.9012624002061784,None,NA,NA,NA,NA,NA,NA,0,22,22,12,3903.8235654002056,NA,NA,NA,NA,NA,NA,NA,NA,NA,NA,NA,NA,NA,NA,NA,NA,NA,NA,NA,NA,NA,NA,3906.734553799965,3906.734604100231,NA,NA,NA,3903.8138438002206,3903.81468736666,3903.8235654002056,3903.8235654002056,0.01343739964067936,0.02361719962209463,3905.730893699918,3906.73347690003,left,0,2.9012624002061784,None,None,NA,NA,NA,NA,NA,NA,NA,NA,NA,NA,NA,1_L2,001,2025-04-21_10h08.16.709,LangExperimentstress,2024.2.4,60.251126700440025,2025-04-21 10h09.25.827904 -0400,NA,V1,L2,NA,left,FALSE,FALSE
sounds/17d_tragar.wav,CVC,Stressed,Mismatch,past,num_2,0,0.2,1.070609360532407,1.117973654513888,1.30915316840277,1.35458539534397,101,40,41,42,43,44,0,0.870609360532407,0.917973654513888,1.10915316840277,1.15458539534397,1_L2_LangExperimentstress_2025-04-21_10h08.16.709.csv,NA,d,NA,23,23,0,NA,NA,NA,NA,None,17,left,0,4.528279399964958,None,NA,NA,NA,NA,NA,NA,0,23,23,26,3906.757682200056,NA,NA,NA,NA,NA,NA,NA,NA,NA,NA,NA,NA,NA,NA,NA,NA,NA,NA,NA,NA,NA,NA,3911.3022056999616,3911.302273000125,NA,NA,NA,3906.747405600269,3906.749106666601,3906.757682200056,3906.757682200056,0.01295620016753673,0.02385720005258917,3909.0649831001647,3911.299491500016,left,0,4.528279399964958,None,None,NA,NA,NA,NA,NA,NA,NA,NA,NA,NA,NA,1_L2,001,2025-04-21_10h08.16.709,LangExperimentstress,2024.2.4,60.251126700440025,2025-04-21 10h09.25.827904 -0400,NA,V1,L2,NA,left,FALSE,FALSE
sounds/12a_matar.wav,CVC,Stressed,Match,present,num_1,0,0.2,0.8400000000000001,0.96,1.17307472511574,1.186647497106481,101,10,11,12,13,14,0,0.64,0.76,0.97307472511574,0.986647497106481,1_L2_LangExperimentstress_2025-04-21_10h08.16.709.csv,NA,a,NA,24,24,0,NA,NA,NA,NA,None,12,right,0,2.479879000224173,None,NA,NA,NA,NA,NA,NA,0,24,24,25,3911.326396299992,NA,NA,NA,NA,NA,NA,NA,NA,NA,NA,NA,NA,NA,NA,NA,NA,NA,NA,NA,NA,NA,NA,3913.8181513003074,3913.818181000184,NA,NA,NA,3911.3165565999225,3911.331418733237,3911.326396299992,3911.326396299992,0.0143037000671029,0.02481370000168681,3913.5310284001753,3913.8161194999702,right,0,2.479879000224173,None,None,NA,NA,NA,NA,NA,NA,NA,NA,NA,NA,NA,1_L2,001,2025-04-21_10h08.16.709,LangExperimentstress,2024.2.4,60.251126700440025,2025-04-21 10h09.25.827904 -0400,NA,V1,L2,NA,right,FALSE,FALSE
sounds/38b_pagar.wav,CVC,Unstressed,Mismatch,present,num_1,0,0.2,1.166737304687499,1.185271158854166,1.29521061197916,1.4055712890624898,101,20,21,22,23,24,0,0.966737304687499,0.985271158854166,1.09521061197916,1.20557128906249,1_L2_LangExperimentstress_2025-04-21_10h08.16.709.csv,NA,b,NA,25,25,0,NA,NA,NA,NA,None,38,right,0,3.357325700111687,None,NA,NA,NA,NA,NA,NA,0,25,25,17,3913.8401477001607,NA,NA,NA,NA,NA,NA,NA,NA,NA,NA,NA,NA,NA,NA,NA,NA,NA,NA,NA,NA,NA,NA,3917.200910100248,3917.20097240014,NA,NA,NA,3913.8311598999426,3913.8313036668737,3913.8401477001607,3913.8401477001607,0.01300100004300475,0.02287680003792047,3916.098317699973,3917.199899900239,right,0,3.357325700111687,None,None,NA,NA,NA,NA,NA,NA,NA,NA,NA,NA,NA,1_L2,001,2025-04-21_10h08.16.709,LangExperimentstress,2024.2.4,60.251126700440025,2025-04-21 10h09.25.827904 -0400,NA,V1,L2,NA,right,FALSE,FALSE
sounds/08d_filtrar.wav,CVC,Stressed,Mismatch,past,num_2,0,0.2,0.7526856695589441,0.87808115762362,1.118901843962886,1.172598812485867,101,40,41,42,43,44,0,0.552685669558944,0.67808115762362,0.918901843962886,0.972598812485867,1_L2_LangExperimentstress_2025-04-21_10h08.16.709.csv,NA,d,NA,26,26,0,NA,NA,NA,NA,None,8,right,0,2.356659600045532,None,NA,NA,NA,NA,NA,NA,0,26,26,15,3917.225314500276,NA,NA,NA,NA,NA,NA,NA,NA,NA,NA,NA,NA,NA,NA,NA,NA,NA,NA,NA,NA,NA,NA,3919.590596199967,3919.5906807999127,NA,NA,NA,3917.216016500257,3917.231809633443,3917.225314500276,3917.225314500276,0.01505160005763173,0.02487229974940419,3918.999959399924,3919.586504300125,right,0,2.356659600045532,None,None,NA,NA,NA,NA,NA,NA,NA,NA,NA,NA,NA,1_L2,001,2025-04-21_10h08.16.709,LangExperimentstress,2024.2.4,60.251126700440025,2025-04-21 10h09.25.827904 -0400,NA,V1,L2,NA,right,TRUE,TRUE
sounds/02c_buscar.wav,CVC,Unstressed,Match,past,num_2,0,0.2,0.8700000000000001,1.07,1.26,1.40703946035879,101,30,31,32,33,34,0,0.67,0.87,1.06,1.20703946035879,1_L2_LangExperimentstress_2025-04-21_10h08.16.709.csv,NA,c,NA,27,27,0,NA,NA,NA,NA,None,2,right,0,4.039560700301081,None,NA,NA,NA,NA,NA,NA,0,27,27,34,3919.6298183999024,NA,NA,NA,NA,NA,NA,NA,NA,NA,NA,NA,NA,NA,NA,NA,NA,NA,NA,NA,NA,NA,NA,3923.6897567003034,3923.689855500125,NA,NA,NA,3919.617606699933,3919.633532100078,3919.6298183999024,3919.6298183999024,0.02694259956479072,0.04037029994651675,3921.766047900077,3923.685744300019,right,0,4.039560700301081,None,None,NA,NA,NA,NA,NA,NA,NA,NA,NA,NA,NA,1_L2,001,2025-04-21_10h08.16.709,LangExperimentstress,2024.2.4,60.251126700440025,2025-04-21 10h09.25.827904 -0400,NA,V1,L2,NA,right,TRUE,TRUE
sounds/37b_pasar.wav,CVC,Unstressed,Mismatch,present,num_1,0,0.2,1.033132486979166,1.052087565104166,1.159499674479166,1.27702115885416,101,20,21,22,23,24,0,0.833132486979166,0.852087565104166,0.959499674479166,1.07702115885416,1_L2_LangExperimentstress_2025-04-21_10h08.16.709.csv,NA,b,NA,28,28,0,NA,NA,NA,NA,None,37,left,0,2.8912327997386456,None,NA,NA,NA,NA,NA,NA,0,28,28,23,3923.729896000121,NA,NA,NA,NA,NA,NA,NA,NA,NA,NA,NA,NA,NA,NA,NA,NA,NA,NA,NA,NA,NA,NA,3926.6361966002737,3926.6362764001824,NA,NA,NA,3923.718769500032,3923.732942000218,3923.729896000121,3923.729896000121,0.02894270000979304,0.04131649993360042,3925.849980799947,3926.6339086000808,left,0,2.8912327997386456,None,None,NA,NA,NA,NA,NA,NA,NA,NA,NA,NA,NA,1_L2,001,2025-04-21_10h08.16.709,LangExperimentstress,2024.2.4,60.251126700440025,2025-04-21 10h09.25.827904 -0400,NA,V1,L2,NA,left,TRUE,TRUE
sounds/33b_culpar.wav,CVC,Unstressed,Mismatch,present,num_1,0,0.2,0.8606178431336959,0.869103678029107,1.109891641372144,1.131540467434179,101,20,21,22,23,24,0,0.660617843133696,0.669103678029107,0.909891641372144,0.931540467434179,1_L2_LangExperimentstress_2025-04-21_10h08.16.709.csv,NA,b,NA,29,29,0,NA,NA,NA,NA,space,33,right,0,1.9664398999884725,None,7.050196399912238,None,NA,NA,NA,NA,0,29,29,35,3926.663868899923,NA,NA,NA,NA,NA,NA,NA,NA,NA,NA,NA,NA,NA,NA,NA,NA,NA,NA,NA,NA,NA,NA,3928.646392200142,3935.716097800061,NA,NA,NA,3926.6536396001466,3926.665275833229,3926.663868899923,3926.663868899923,0.01738249976187944,0.02841689996421337,NA,3928.632732500322,right,0,1.9664398999884725,None,space,3928.650911000091,3928.650911000091,7.050196399912238,None,NA,NA,NA,NA,NA,NA,NA,1_L2,001,2025-04-21_10h08.16.709,LangExperimentstress,2024.2.4,60.251126700440025,2025-04-21 10h09.25.827904 -0400,NA,V1,L2,NA,right,FALSE,FALSE
sounds/30a_fundar.wav,CVC,Stressed,Match,present,num_1,0,0.2,0.77,0.91,1.112685546875,1.12,101,10,11,12,13,14,0,0.57,0.71,0.912685546875,0.92,1_L2_LangExperimentstress_2025-04-21_10h08.16.709.csv,NA,a,NA,30,30,0,NA,NA,NA,NA,None,30,right,0,3.053374099545181,None,NA,NA,NA,NA,NA,NA,0,30,30,36,3935.737295300234,NA,NA,NA,NA,NA,NA,NA,NA,NA,NA,NA,NA,NA,NA,NA,NA,NA,NA,NA,NA,NA,NA,3938.806415600237,3938.80653790012,NA,NA,NA,3935.7277108002454,3935.731442066903,3935.737295300234,3935.737295300234,0.01163670001551508,0.02172590000554919,3937.898782300297,3938.8030022000894,right,0,3.053374099545181,None,None,NA,NA,NA,NA,NA,NA,NA,NA,NA,NA,NA,1_L2,001,2025-04-21_10h08.16.709,LangExperimentstress,2024.2.4,60.251126700440025,2025-04-21 10h09.25.827904 -0400,NA,V1,L2,NA,right,FALSE,FALSE
sounds/21a_mezclar.wav,CVC,Stressed,Match,present,num_1,0,0.2,0.78,0.9121902777777772,1.20214212962962,1.27,101,10,11,12,13,14,0,0.58,0.712190277777777,1.00214212962962,1.07,1_L2_LangExperimentstress_2025-04-21_10h08.16.709.csv,NA,a,NA,31,31,0,NA,NA,NA,NA,None,21,right,0,3.868114199955016,None,NA,NA,NA,NA,NA,NA,0,31,31,27,3938.841636599973,NA,NA,NA,NA,NA,NA,NA,NA,NA,NA,NA,NA,NA,NA,NA,NA,NA,NA,NA,NA,NA,NA,3942.724716700148,3942.724865099881,NA,NA,NA,3938.8316605999134,3938.8332823334576,3938.841636599973,3938.841636599973,0.02510820003226399,0.03622430004179478,3940.866742100101,3942.720599200111,right,0,3.868114199955016,None,None,NA,NA,NA,NA,NA,NA,NA,NA,NA,NA,NA,1_L2,001,2025-04-21_10h08.16.709,LangExperimentstress,2024.2.4,60.251126700440025,2025-04-21 10h09.25.827904 -0400,NA,V1,L2,NA,right,FALSE,FALSE
sounds/13c_montar.wav,CVC,Unstressed,Match,past,num_2,0,0.2,0.8800000000000001,0.98,1.24543012152777,1.2594709201388798,101,30,31,32,33,34,0,0.68,0.78,1.04543012152777,1.05947092013888,1_L2_LangExperimentstress_2025-04-21_10h08.16.709.csv,NA,c,NA,32,32,0,NA,NA,NA,NA,None,13,left,0,4.56548779970035,None,NA,NA,NA,NA,NA,NA,0,32,32,33,3942.7598816999234,NA,NA,NA,NA,NA,NA,NA,NA,NA,NA,NA,NA,NA,NA,NA,NA,NA,NA,NA,NA,NA,NA,3947.334162999876,3947.334198600147,NA,NA,NA,3942.7501969002183,3942.750424833627,3942.7598816999234,3942.7598816999234,0.02538329968228936,0.03587060002610087,3945.067464100197,3947.33296190016,left,0,4.56548779970035,None,None,NA,NA,NA,NA,NA,NA,NA,NA,NA,NA,NA,1_L2,001,2025-04-21_10h08.16.709,LangExperimentstress,2024.2.4,60.251126700440025,2025-04-21 10h09.25.827904 -0400,NA,V1,L2,NA,left,FALSE,FALSE
sounds/18b_cumplir.wav,CVC,Unstressed,Mismatch,present,num_1,0,0.2,1.2408027271412,1.25568597366898,1.46256310040509,1.54144430700231,101,20,21,22,23,24,0,1.0408027271412,1.05568597366898,1.26256310040509,1.34144430700231,1_L2_LangExperimentstress_2025-04-21_10h08.16.709.csv,NA,b,NA,33,33,0,NA,NA,NA,NA,None,18,left,0,3.60346859972924,None,NA,NA,NA,NA,NA,NA,0,33,33,29,3947.354147800245,NA,NA,NA,NA,NA,NA,NA,NA,NA,NA,NA,NA,NA,NA,NA,NA,NA,NA,NA,NA,NA,NA,3950.971063999925,3950.971137000248,NA,NA,NA,3947.345069500152,3947.348429766546,3947.354147800245,3947.354147800245,0.01088269986212253,0.02060530008748173,3949.5484768003225,3950.9673009999096,left,0,3.60346859972924,None,None,NA,NA,NA,NA,NA,NA,NA,NA,NA,NA,NA,1_L2,001,2025-04-21_10h08.16.709,LangExperimentstress,2024.2.4,60.251126700440025,2025-04-21 10h09.25.827904 -0400,NA,V1,L2,NA,left,TRUE,TRUE
sounds/14b_borrar.wav,CVC,Unstressed,Mismatch,present,num_1,0,0.2,0.72,0.770187630208333,0.851961241319444,0.964399956597222,101,20,21,22,23,24,0,0.52,0.570187630208333,0.651961241319444,0.764399956597222,1_L2_LangExperimentstress_2025-04-21_10h08.16.709.csv,NA,b,NA,34,34,0,NA,NA,NA,NA,None,14,right,0,2.7077040001749992,None,NA,NA,NA,NA,NA,NA,0,34,34,20,3950.994308799971,NA,NA,NA,NA,NA,NA,NA,NA,NA,NA,NA,NA,NA,NA,NA,NA,NA,NA,NA,NA,NA,NA,3953.7177734998986,3953.717828700319,NA,NA,NA,3950.983783900272,3950.9991784334497,3950.994308799971,3950.994308799971,0.01266789995133876,0.02382180001586675,3952.9496921002865,3953.7161996001378,right,0,2.7077040001749992,None,None,NA,NA,NA,NA,NA,NA,NA,NA,NA,NA,NA,1_L2,001,2025-04-21_10h08.16.709,LangExperimentstress,2024.2.4,60.251126700440025,2025-04-21 10h09.25.827904 -0400,NA,V1,L2,NA,right,FALSE,FALSE
