sounds,syll,stress_unstress,suffix,present_past,corrAns,trigger_item,trigger_senonset,trigger_verbsonset,trigger_1_F0,trigger_suffix,trigger_2_F0,ID_item,ID_senonset,ID_verbonset,ID_1_F0,ID_suffix,ID_2_F0,ms_senonset,ms_verbonset,ms_1_F0,ms_suffix,ms_2_F0,file_name,sentence,cond,combo,thisN,thisTrialN,thisRepN,key_resp_4.keys,key_resp_4.corr,key_resp_4.rt,key_resp_4.duration,key_resp_5.keys,item_id,key_resp_2.keys,key_resp_2.corr,key_resp_2.rt,key_resp_2.duration,key_resp_5.rt,key_resp_5.duration,practice_trials.thisRepN,practice_trials.thisTrialN,practice_trials.thisN,practice_trials.thisIndex,experimental_trials.thisRepN,experimental_trials.thisTrialN,experimental_trials.thisN,experimental_trials.thisIndex,thisRow.t,notes,instructions.started,instr.started,key_resp.started,instructions.stopped,key_resp.keys,key_resp.rt,key_resp.duration,init_practice.started,init_practice.stopped,test_practice.started,test_sound_2.started,key_resp_4.started,polygon.started,serialPort_item_2.started,serialPort_item_2.stopped,test_sound_2.stopped,test_practice.stopped,practice_trials.key_resp_4.keys,practice_trials.key_resp_4.corr,practice_trials.key_resp_4.rt,practice_trials.key_resp_4.duration,takeabreak.started,takeabreak.stopped,practice_trials.key_resp_5.keys,init_trials.started,init_trials.stopped,test.started,test_sound.started,key_resp_2.started,polygon_2.started,serialPort_item.started,serialPort_item.stopped,test_sound.stopped,test.stopped,experimental_trials.key_resp_2.keys,experimental_trials.key_resp_2.corr,experimental_trials.key_resp_2.rt,experimental_trials.key_resp_2.duration,experimental_trials.key_resp_5.keys,text_3.started,key_resp_5.started,experimental_trials.key_resp_5.rt,experimental_trials.key_resp_5.duration,Thanks.started,text_2.started,key_resp_thanks.started,Thanks.stopped,key_resp_thanks.keys,key_resp_thanks.rt,key_resp_thanks.duration,participant,session,date,expName,psychopyVersion,frameRate,expStart,
,,,,,,,,,,,,,,,,,,,,,,,,,,,,,,,,,,,,,,,,,,,,,,,,,,,,0.002860400010831654,0.01682540006004274,0.01682540006004274,8243.982649100013,space,8243.9513668,None,,,,,,,,,,,,,,,,,,,,,,,,,,,,,,,,,,,,,,,,,,,,13_L2,001,2025-04-28_11h59.32.497,LangExperimentstress,2024.2.4,60.04311093242065,2025-04-28 12h00.03.126199 -0400,
,,,,,,,,,,,,,,,,,,,,,,,,,,,,,,,,,,,,,,,,,,,,,,,,,,,,,,,,,,,8243.982760100043,8243.983626500005,,,,,,,,,,,,,,,,,,,,,,,,,,,,,,,,,,,,,,,,,,13_L2,001,2025-04-28_11h59.32.497,LangExperimentstress,2024.2.4,60.04311093242065,2025-04-28 12h00.03.126199 -0400,
sounds/p2b_cortar.wav,CVC,Unstressed,Mismatch,present,num_1,0.0,0.205513,0.8629519999999999,0.984841,1.219715,1.27,101,20,21,22,23,24,0.005513,0.662952,0.784841,1.019715,1.07,p2b_cortar.wav,p2,b,p2b,0,0,0,right,0,6.207250100094825,None,None,,,,,,,,0,0,0,1,,,,,8244.008354000049,,,,,,,,,,,8243.998506600037,8244.013941933408,8244.008354000049,8244.008354000049,0.014892500010319054,0.025423899991437793,8246.280669400003,8250.233467400074,right,0,6.207250100094825,None,8250.236607600003,8250.236693000072,None,,,,,,,,,,,,,,,,,,,,,,,,,,,13_L2,001,2025-04-28_11h59.32.497,LangExperimentstress,2024.2.4,60.04311093242065,2025-04-28 12h00.03.126199 -0400,
sounds/p3c_saltar.wav,CVC,Unstressed,Match,past,num_2,0.0,0.205513,0.8629519999999999,0.984841,1.219715,1.27,101,30,31,32,33,34,0.005513,0.662952,0.784841,1.019715,1.07,p3c_saltar.wav,p3,c,p3c,1,1,0,left,0,6.489452499896288,None,None,,,,,,,,0,1,1,2,,,,,8250.254517800058,,,,,,,,,,,8250.243333999999,8250.247856166741,8250.254517800058,8250.254517800058,0.006677200086414814,0.01873780007008463,8252.347360600019,8256.74985770008,left,0,6.489452499896288,None,8256.752522900002,8256.752591400058,None,,,,,,,,,,,,,,,,,,,,,,,,,,,13_L2,001,2025-04-28_11h59.32.497,LangExperimentstress,2024.2.4,60.04311093242065,2025-04-28 12h00.03.126199 -0400,
sounds/p1a_saltar.wav,CVC,Stressed,Match,present,num_1,0.0,0.205513,0.8629519999999999,0.984841,1.219715,1.27,101,10,11,12,13,14,0.005513,0.662952,0.784841,1.019715,1.07,p1a_saltar.wav,p1,a,p1a,2,2,0,left,0,8.613954699947499,None,None,,,,,,,,0,2,2,0,,,,,8256.769779200084,,,,,,,,,,,8256.758569400059,8256.764171366758,8256.769779200084,8256.769779200084,0.005999900051392615,0.018210000009275973,8259.01469370001,8265.400383700035,left,0,8.613954699947499,None,8265.404154899996,8265.404250500025,None,,,,,,,,,,,,,,,,,,,,,,,,,,,13_L2,001,2025-04-28_11h59.32.497,LangExperimentstress,2024.2.4,60.04311093242065,2025-04-28 12h00.03.126199 -0400,
sounds/p4d_cortar.wav,CVC,Stressed,Mismatch,past,num_2,0.0,0.205513,0.8629519999999999,0.984841,1.219715,1.27,101,40,41,42,43,44,0.005513,0.662952,0.784841,1.019715,1.07,p4d_cortar.wav,p4,d,p4d,3,3,0,right,0,6.761091500055045,None,None,,,,,,,,0,3,3,3,,,,,8265.423224700033,,,,,,,,,,,8265.412520000013,8265.414453966721,8265.423224700033,8265.423224700033,0.008362900000065565,0.019922299892641604,8267.93129930005,8272.20098860003,right,0,6.761091500055045,None,8272.204883700004,8272.204955600086,None,,,,,,,,,,,,,,,,,,,,,,,,,,,13_L2,001,2025-04-28_11h59.32.497,LangExperimentstress,2024.2.4,60.04311093242065,2025-04-28 12h00.03.126199 -0400,
,,,,,,,,,,,,,,,,,,,,,,,,,,,,,,,,,,,,,,,,,,,,,,,,,,,,8272.205143600004,8272.21483010007,8272.21483010007,8344.152222600067,space,71.92970759992022,None,,,,,,,,,,,,,,,,,,,,,,,,,,,,,,,,,,,,,,,,,,,,13_L2,001,2025-04-28_11h59.32.497,LangExperimentstress,2024.2.4,60.04311093242065,2025-04-28 12h00.03.126199 -0400,
,,,,,,,,,,,,,,,,,,,,,,,,,,,,,,,,,,,,,,,,,,,,,,,,,,,,,,,,,,,,,,,,,,,,,,,,,,,,8344.152309100027,8344.153219100088,,,,,,,,,,,,,,,,,,,,,,,,,13_L2,001,2025-04-28_11h59.32.497,LangExperimentstress,2024.2.4,60.04311093242065,2025-04-28 12h00.03.126199 -0400,
sounds/01d_salvar.wav,CVC,Stressed,Mismatch,past,num_2,0.0,0.2,0.8500000000000001,0.996069502314814,1.23,1.29,101,40,41,42,43,44,0,0.65,0.796069502314814,1.03,1.09,01d_salvar.wav,,d,,0,0,0,,,,,None,1,right,0,4.963109499891289,None,,,,,,,0,0,0,37,8344.181715900078,,,,,,,,,,,,,,,,,,,,,,,8349.155429100036,8349.155502400012,,,,8344.172107100021,8344.183086033336,8344.181715900078,8344.181715900078,0.018877399968914688,0.029053300037048757,8346.249700300046,8349.15292900009,right,0,4.963109499891289,None,None,,,,,,,,,,,,13_L2,001,2025-04-28_11h59.32.497,LangExperimentstress,2024.2.4,60.04311093242065,2025-04-28 12h00.03.126199 -0400,
sounds/19a_marcar.wav,CVC,Stressed,Match,present,num_1,0.0,0.2,0.8400000000000001,0.97,1.245718359375,1.273519140625,101,10,11,12,13,14,0,0.64,0.77,1.045718359375,1.073519140625,19a_marcar.wav,,a,,1,1,0,,,,,None,19,left,0,4.198524600011297,None,,,,,,,0,1,1,19,8349.170163800009,,,,,,,,,,,,,,,,,,,,,,,8353.3893713,8353.389454000047,,,,8349.160469900002,8349.166757366682,8349.170163800009,8349.170163800009,0.004981599980965257,0.01548140007071197,8351.083231099998,8353.385397900012,left,0,4.198524600011297,None,None,,,,,,,,,,,,13_L2,001,2025-04-28_11h59.32.497,LangExperimentstress,2024.2.4,60.04311093242065,2025-04-28 12h00.03.126199 -0400,
sounds/32d_pulsar.wav,CVC,Stressed,Mismatch,past,num_2,0.0,0.2,0.796440212673611,0.8294641710069439,0.99,1.097783832465277,101,40,41,42,43,44,0,0.596440212673611,0.629464171006944,0.79,0.897783832465277,32d_pulsar.wav,,d,,2,2,0,,,,,None,32,right,0,5.150419500074349,None,,,,,,,0,2,2,24,8353.40978550003,,,,,,,,,,,,,,,,,,,,,,,8358.57270680007,8358.572794100037,,,,8353.398649699986,8353.399812666761,8353.40978550003,8353.40978550003,0.009281900012865663,0.02142090001143515,8355.21666819998,8358.569300400093,right,0,5.150419500074349,None,None,,,,,,,,,,,,13_L2,001,2025-04-28_11h59.32.497,LangExperimentstress,2024.2.4,60.04311093242065,2025-04-28 12h00.03.126199 -0400,
sounds/15b_partir.wav,CVC,Unstressed,Mismatch,present,num_1,0.0,0.2,0.826865400752314,0.842973894883327,1.1042888772729471,1.120815958498066,101,20,21,22,23,24,0,0.626865400752314,0.642973894883327,0.904288877272947,0.920815958498066,15b_partir.wav,,b,,3,3,0,,,,,None,15,right,0,5.265315999975428,None,,,,,,,0,3,3,22,8358.590968100005,,,,,,,,,,,,,,,,,,,,,,,8363.872630099999,8363.87270190008,,,,8358.579582100036,8358.583519466749,8358.590968100005,8358.590968100005,0.0068286999594420195,0.019251099904067814,8360.65027610003,8363.86878660007,right,0,5.265315999975428,None,None,,,,,,,,,,,,13_L2,001,2025-04-28_11h59.32.497,LangExperimentstress,2024.2.4,60.04311093242065,2025-04-28 12h00.03.126199 -0400,
sounds/25b_ganar.wav,CVC,Unstressed,Mismatch,present,num_1,0.0,0.2,1.152097938368055,1.15990068760488,1.28904165650454,1.37272500435153,101,20,21,22,23,24,0,0.952097938368055,0.95990068760488,1.08904165650454,1.17272500435153,25b_ganar.wav,,b,,4,4,0,,,,,None,25,left,0,2.9649292998947203,None,,,,,,,0,4,4,8,8363.89141739998,,,,,,,,,,,,,,,,,,,,,,,8366.873136400012,8366.873223400093,,,,8363.879725000006,8363.883310666719,8363.89141739998,8363.89141739998,0.007053400040604174,0.019931700080633163,8366.233772200067,8366.869647099986,left,0,2.9649292998947203,None,None,,,,,,,,,,,,13_L2,001,2025-04-28_11h59.32.497,LangExperimentstress,2024.2.4,60.04311093242065,2025-04-28 12h00.03.126199 -0400,
sounds/20c_cubrir.wav,CVC,Unstressed,Match,past,num_2,0.0,0.2,0.980138641742621,1.01,1.192436112212021,1.28412143493692,101,30,31,32,33,34,0,0.780138641742621,0.81,0.992436112212021,1.08412143493692,20c_cubrir.wav,,c,,5,5,0,,,,,None,20,right,0,5.061632200027816,None,,,,,,,0,5,5,31,8366.891359000001,,,,,,,,,,,,,,,,,,,,,,,8371.973212299985,8371.973305299995,,,,8366.880068300059,8366.883613266695,8366.891359000001,8366.891359000001,0.006924099987372756,0.01901169994380325,8369.016848300002,8371.969477200066,right,0,5.061632200027816,None,None,,,,,,,,,,,,13_L2,001,2025-04-28_11h59.32.497,LangExperimentstress,2024.2.4,60.04311093242065,2025-04-28 12h00.03.126199 -0400,
sounds/30a_fundar.wav,CVC,Stressed,Match,present,num_1,0.0,0.2,0.77,0.91,1.112685546875,1.12,101,10,11,12,13,14,0,0.57,0.71,0.912685546875,0.92,30a_fundar.wav,,a,,6,6,0,,,,,None,30,right,0,4.639761799946427,None,,,,,,,0,6,6,36,8371.993560699979,,,,,,,,,,,,,,,,,,,,,,,8376.64065090008,8376.640728000086,,,,8371.981712799985,8371.983459766667,8371.993560699979,8371.993560699979,0.008614799939095974,0.021427399944514036,8374.150664400076,8376.6364971,right,0,4.639761799946427,None,None,,,,,,,,,,,,13_L2,001,2025-04-28_11h59.32.497,LangExperimentstress,2024.2.4,60.04311093242065,2025-04-28 12h00.03.126199 -0400,
sounds/23a_tomar.wav,CVC,Stressed,Match,present,num_1,0.0,0.2,0.9453179615162032,0.95,1.08,1.158644495081018,101,10,11,12,13,14,0,0.745317961516203,0.75,0.88,0.958644495081018,23a_tomar.wav,,a,,7,7,0,,,,,None,23,left,0,5.582447999971919,None,,,,,,,0,7,7,39,8376.65776089998,,,,,,,,,,,,,,,,,,,,,,,8382.25702150003,8382.257105200086,,,,8376.646971300012,8376.650342066718,8376.65776089998,8376.65776089998,0.006259100046008825,0.018158199964091182,8378.567465600092,8382.253008700092,left,0,5.582447999971919,None,None,,,,,,,,,,,,13_L2,001,2025-04-28_11h59.32.497,LangExperimentstress,2024.2.4,60.04311093242065,2025-04-28 12h00.03.126199 -0400,
sounds/08d_filtrar.wav,CVC,Stressed,Mismatch,past,num_2,0.0,0.2,0.7526856695589441,0.87808115762362,1.118901843962886,1.172598812485867,101,40,41,42,43,44,0,0.552685669558944,0.67808115762362,0.918901843962886,0.972598812485867,08d_filtrar.wav,,d,,8,8,0,,,,,None,8,left,0,5.933452200028114,None,,,,,,,0,8,8,15,8382.275409299997,,,,,,,,,,,,,,,,,,,,,,,8388.224068799987,8388.224157700082,,,,8382.263596500037,8382.267190666698,8382.275409299997,8382.275409299997,0.006518700043670833,0.019313900033012033,8384.050297299982,8388.219574499992,left,0,5.933452200028114,None,None,,,,,,,,,,,,13_L2,001,2025-04-28_11h59.32.497,LangExperimentstress,2024.2.4,60.04311093242065,2025-04-28 12h00.03.126199 -0400,
sounds/14b_borrar.wav,CVC,Unstressed,Mismatch,present,num_1,0.0,0.2,0.72,0.770187630208333,0.851961241319444,0.964399956597222,101,20,21,22,23,24,0,0.52,0.570187630208333,0.651961241319444,0.764399956597222,14b_borrar.wav,,b,,9,9,0,,,,,space,14,right,0,4.606378700002097,None,24.076474700006656,None,,,,,0,9,9,20,8388.242229000083,,,,,,,,,,,,,,,,,,,,,,,8392.853659300017,8416.953704399988,,,,8388.231210099999,8388.23361436668,8388.242229000083,8388.242229000083,0.007132699945941567,0.01905070000793785,8390.200495700003,8392.851711100084,right,0,4.606378700002097,None,space,8392.867203900008,8392.867203900008,24.076474700006656,None,,,,,,,,13_L2,001,2025-04-28_11h59.32.497,LangExperimentstress,2024.2.4,60.04311093242065,2025-04-28 12h00.03.126199 -0400,
sounds/31d_tocar.wav,CVC,Stressed,Mismatch,past,num_2,0.0,0.2,0.8493931756807,0.8650112062639721,1.006860547391531,1.049162047334928,101,40,41,42,43,44,0,0.6493931756807,0.665011206263972,0.806860547391531,0.849162047334928,31d_tocar.wav,,d,,10,10,0,,,,,None,31,left,0,4.478591699968092,None,,,,,,,0,10,10,30,8416.970009800047,,,,,,,,,,,,,,,,,,,,,,,8421.45854900009,8421.458643099992,,,,8416.959851599997,8416.967847566648,8416.970009800047,8416.970009800047,0.006107199937105179,0.017145899939350784,8418.884817600017,8421.45463520009,left,0,4.478591699968092,None,None,,,,,,,,,,,,13_L2,001,2025-04-28_11h59.32.497,LangExperimentstress,2024.2.4,60.04311093242065,2025-04-28 12h00.03.126199 -0400,
sounds/10d_vender.wav,CVC,Stressed,Mismatch,past,num_2,0.0,0.2,0.832830209056713,0.8775468199411529,1.109501330306288,1.158928471023364,101,40,41,42,43,44,0,0.632830209056713,0.677546819941153,0.909501330306288,0.958928471023364,10d_vender.wav,,d,,11,11,0,,,,,None,10,left,0,5.512824699981138,None,,,,,,,0,11,11,12,8421.479523300077,,,,,,,,,,,,,,,,,,,,,,,8427.00801650004,8427.008159200079,,,,8421.466554300045,8421.468695466701,8421.479523300077,8421.479523300077,0.00800639996305108,0.022065100027248263,8423.384618600016,8427.004475000082,left,0,5.512824699981138,None,None,,,,,,,,,,,,13_L2,001,2025-04-28_11h59.32.497,LangExperimentstress,2024.2.4,60.04311093242065,2025-04-28 12h00.03.126199 -0400,
sounds/33b_culpar.wav,CVC,Unstressed,Mismatch,present,num_1,0.0,0.2,0.8606178431336959,0.869103678029107,1.109891641372144,1.131540467434179,101,20,21,22,23,24,0,0.660617843133696,0.669103678029107,0.909891641372144,0.931540467434179,33b_culpar.wav,,b,,12,12,0,,,,,None,33,right,0,9.613177699968219,None,,,,,,,0,12,12,35,8427.027031300007,,,,,,,,,,,,,,,,,,,,,,,8436.65690609999,8436.656984800007,,,,8427.015568900038,8427.0183528667,8427.027031300007,8427.027031300007,0.007486199960112572,0.019948799978010356,8429.201984200045,8436.654092199984,right,0,9.613177699968219,None,None,,,,,,,,,,,,13_L2,001,2025-04-28_11h59.32.497,LangExperimentstress,2024.2.4,60.04311093242065,2025-04-28 12h00.03.126199 -0400,
sounds/09c_cargar.wav,CVC,Unstressed,Match,past,num_2,0.0,0.2,0.81286744068287,0.8382251229745361,1.032634020543981,1.090594437210648,101,30,31,32,33,34,0,0.61286744068287,0.638225122974536,0.832634020543981,0.890594437210648,09c_cargar.wav,,c,,13,13,0,,,,,None,9,left,0,12.591430899919942,None,,,,,,,0,13,13,28,8436.672829300049,,,,,,,,,,,,,,,,,,,,,,,8449.275870500016,8449.275964400033,,,,8436.662980600027,8436.66846676666,8436.672829300049,8436.672829300049,0.006007699994370341,0.01655229995958507,8438.618586800061,8449.27156870009,left,0,12.591430899919942,None,None,,,,,,,,,,,,13_L2,001,2025-04-28_11h59.32.497,LangExperimentstress,2024.2.4,60.04311093242065,2025-04-28 12h00.03.126199 -0400,
sounds/03b_limpiar.wav,CVC,Unstressed,Mismatch,present,num_1,0.0,0.2,0.8500000000000001,0.932367621527777,1.26878515625,1.35808463541666,101,20,21,22,23,24,0,0.65,0.732367621527777,1.06878515625,1.15808463541666,03b_limpiar.wav,,b,,14,14,0,,,,,None,3,left,0,6.272595699992962,None,,,,,,,0,14,14,4,8449.29565980006,,,,,,,,,,,,,,,,,,,,,,,8455.575060400064,8455.575137900072,,,,8449.283182600047,8449.285601766725,8449.29565980006,8449.29565980006,0.007259399979375303,0.02067549992352724,8451.451869399985,8455.571542800055,left,0,6.272595699992962,None,None,,,,,,,,,,,,13_L2,001,2025-04-28_11h59.32.497,LangExperimentstress,2024.2.4,60.04311093242065,2025-04-28 12h00.03.126199 -0400,
sounds/02c_buscar.wav,CVC,Unstressed,Match,past,num_2,0.0,0.2,0.8700000000000001,1.07,1.26,1.40703946035879,101,30,31,32,33,34,0,0.67,0.87,1.06,1.20703946035879,02c_buscar.wav,,c,,15,15,0,,,,,None,2,left,0,4.311205300036818,None,,,,,,,0,15,15,34,8455.5924045,,,,,,,,,,,,,,,,,,,,,,,8459.92534429999,8459.92542860005,,,,8455.581067300052,8455.585711366675,8455.5924045,8455.5924045,0.005946199991740286,0.018287499900907278,8457.718728900072,8459.921288200072,left,0,4.311205300036818,None,None,,,,,,,,,,,,13_L2,001,2025-04-28_11h59.32.497,LangExperimentstress,2024.2.4,60.04311093242065,2025-04-28 12h00.03.126199 -0400,
sounds/17d_tragar.wav,CVC,Stressed,Mismatch,past,num_2,0.0,0.2,1.070609360532407,1.117973654513888,1.30915316840277,1.35458539534397,101,40,41,42,43,44,0,0.870609360532407,0.917973654513888,1.10915316840277,1.15458539534397,17d_tragar.wav,,d,,16,16,0,,,,,None,17,left,0,5.7985800000606105,None,,,,,,,0,16,16,26,8459.945294999983,,,,,,,,,,,,,,,,,,,,,,,8465.759231000091,8465.75931470003,,,,8459.933758900035,8459.93582066667,8459.945294999983,8459.945294999983,0.008376800105907023,0.02092030004132539,8462.251930900034,8465.755774800084,left,0,5.7985800000606105,None,None,,,,,,,,,,,,13_L2,001,2025-04-28_11h59.32.497,LangExperimentstress,2024.2.4,60.04311093242065,2025-04-28 12h00.03.126199 -0400,
sounds/06d_soplar.wav,CVC,Stressed,Mismatch,past,num_2,0.0,0.2,0.761291666666666,0.8899999999999999,1.102139687590422,1.166665581687644,101,40,41,42,43,44,0,0.561291666666666,0.69,0.902139687590422,0.966665581687644,06d_soplar.wav,,d,,17,17,0,,,,,None,6,right,0,9.342083099996671,None,,,,,,,0,17,17,16,8465.778630100074,,,,,,,,,,,,,,,,,,,,,,,8475.141896400019,8475.141976500046,,,,8465.767389300046,8465.769625466728,8465.778630100074,8465.778630100074,0.008121600025333464,0.020488300011493266,8467.668959900038,8475.137847200036,right,0,9.342083099996671,None,None,,,,,,,,,,,,13_L2,001,2025-04-28_11h59.32.497,LangExperimentstress,2024.2.4,60.04311093242065,2025-04-28 12h00.03.126199 -0400,
sounds/22d_dejar.wav,CVC,Stressed,Mismatch,past,num_2,0.0,0.2,0.8500000000000001,1.02,1.152543366608796,1.28794346788194,101,40,41,42,43,44,0,0.65,0.82,0.952543366608796,1.08794346788194,22d_dejar.wav,,d,,18,18,0,,,,,None,22,left,0,3.4886414000065997,None,,,,,,,0,18,18,14,8475.160094500054,,,,,,,,,,,,,,,,,,,,,,,8478.660023999983,8478.660108400043,,,,8475.149059300078,8475.152245366658,8475.160094500054,8475.160094500054,0.007105199969373643,0.019215499982237816,8477.202882300015,8478.655876700068,left,0,3.4886414000065997,None,None,,,,,,,,,,,,13_L2,001,2025-04-28_11h59.32.497,LangExperimentstress,2024.2.4,60.04311093242065,2025-04-28 12h00.03.126199 -0400,
sounds/05a_fumar.wav,CVC,Stressed,Match,present,num_1,0.0,0.2,1.15,1.36712555700231,1.48,1.56308830295138,101,10,11,12,13,14,0,0.95,1.16712555700231,1.28,1.36308830295138,05a_fumar.wav,,a,,19,19,0,,,,,space,5,right,0,7.185855600051582,None,10.201897999970242,None,,,,,0,19,19,38,8478.678768199985,,,,,,,,,,,,,,,,,,,,,,,8485.87580899999,8496.10434229998,,,,8478.668634300004,8478.670344366754,8478.678768199985,8478.678768199985,0.00853410002309829,0.01972760003991425,8481.052687600022,8485.871824700036,right,0,7.185855600051582,None,space,8485.886199900066,8485.886199900066,10.201897999970242,None,,,,,,,,13_L2,001,2025-04-28_11h59.32.497,LangExperimentstress,2024.2.4,60.04311093242065,2025-04-28 12h00.03.126199 -0400,
sounds/29a_pesar.wav,CVC,Stressed,Match,present,num_1,0.0,0.2,0.91328417532552,0.925531286730473,1.03,1.150619522602117,101,10,11,12,13,14,0,0.71328417532552,0.725531286730473,0.83,0.950619522602117,29a_pesar.wav,,a,,20,20,0,,,,,None,29,left,0,5.892830200027674,None,,,,,,,0,20,20,32,8496.12263950007,,,,,,,,,,,,,,,,,,,,,,,8502.025294400053,8502.025375100086,,,,8496.110255500069,8496.119216566734,8496.12263950007,8496.12263950007,0.005900799995288253,0.019100300036370754,8498.03659500007,8502.022186800023,left,0,5.892830200027674,None,None,,,,,,,,,,,,13_L2,001,2025-04-28_11h59.32.497,LangExperimentstress,2024.2.4,60.04311093242065,2025-04-28 12h00.03.126199 -0400,
sounds/13c_montar.wav,CVC,Unstressed,Match,past,num_2,0.0,0.2,0.8800000000000001,0.98,1.24543012152777,1.2594709201388798,101,30,31,32,33,34,0,0.68,0.78,1.04543012152777,1.05947092013888,13c_montar.wav,,c,,21,21,0,,,,,None,13,right,0,8.514962999965064,None,,,,,,,0,21,21,33,8502.044474499999,,,,,,,,,,,,,,,,,,,,,,,8510.576897400082,8510.57698880008,,,,8502.032071800088,8502.036621166688,8502.044474499999,8502.044474499999,0.006723099970258772,0.020218900055624545,8504.336658900022,8510.572710699984,right,0,8.514962999965064,None,None,,,,,,,,,,,,13_L2,001,2025-04-28_11h59.32.497,LangExperimentstress,2024.2.4,60.04311093242065,2025-04-28 12h00.03.126199 -0400,
sounds/35b_secar.wav,CVC,Unstressed,Mismatch,present,num_1,0.0,0.2,0.8990044921875,1.025708658854166,1.179689416956018,1.20652606336805,101,20,21,22,23,24,0,0.6990044921875,0.825708658854166,0.979689416956018,1.00652606336805,35b_secar.wav,,b,,22,22,0,,,,,None,35,right,0,1.9883018999826163,None,,,,,,,0,22,22,5,8510.595664700028,,,,,,,,,,,,,,,,,,,,,,,8512.606596000027,8512.606697099982,,,,8510.583637900068,8510.586904266678,8510.595664700028,8510.595664700028,0.0066711000399664044,0.019846700015477836,,8512.589549700031,right,0,1.9883018999826163,None,None,,,,,,,,,,,,13_L2,001,2025-04-28_11h59.32.497,LangExperimentstress,2024.2.4,60.04311093242065,2025-04-28 12h00.03.126199 -0400,
sounds/36c_bordar.wav,CVC,Unstressed,Match,past,num_2,0.0,0.2,1.0,1.078468243634259,1.3288624855324,1.3414992042824,101,30,31,32,33,34,0,0.8,0.878468243634259,1.1288624855324,1.1414992042824,36c_bordar.wav,,c,,23,23,0,,,,,None,36,left,0,7.966379999998026,None,,,,,,,0,23,23,1,8512.624998899992,,,,,,,,,,,,,,,,,,,,,,,8520.608465900063,8520.608543500071,,,,8512.613575500087,8512.619971433312,8512.624998899992,8512.624998899992,0.006900399923324585,0.019476099987514317,8514.903451399994,8520.605712800054,left,0,7.966379999998026,None,None,,,,,,,,,,,,13_L2,001,2025-04-28_11h59.32.497,LangExperimentstress,2024.2.4,60.04311093242065,2025-04-28 12h00.03.126199 -0400,
sounds/26a_bajar.wav,CVC,Stressed,Match,present,num_1,0.0,0.2,0.77,0.8999999999999999,1.03,1.171181705729166,101,10,11,12,13,14,0,0.57,0.7,0.83,0.971181705729166,26a_bajar.wav,,a,,24,24,0,,,,,None,26,right,0,7.886732900049537,None,,,,,,,0,24,24,13,8520.625471699983,,,,,,,,,,,,,,,,,,,,,,,8528.525757100084,8528.525841600029,,,,8520.614837700035,8520.620071066722,8520.625471699983,8520.625471699983,0.006308500072918832,0.017874500015750527,8522.703277199995,8528.52275220002,right,0,7.886732900049537,None,None,,,,,,,,,,,,13_L2,001,2025-04-28_11h59.32.497,LangExperimentstress,2024.2.4,60.04311093242065,2025-04-28 12h00.03.126199 -0400,
sounds/04c_plantar.wav,CVC,Unstressed,Match,past,num_2,0.0,0.2,0.862877574458911,0.9343518689653568,1.20493812332404,1.21897569287037,101,30,31,32,33,34,0,0.662877574458911,0.734351868965357,1.00493812332404,1.01897569287037,04c_plantar.wav,,c,,25,25,0,,,,,None,4,left,0,5.000680100056343,None,,,,,,,0,25,25,9,8528.54267460003,,,,,,,,,,,,,,,,,,,,,,,8533.560276200064,8533.560408500023,,,,8528.532197699999,8528.537063766682,8528.54267460003,8528.54267460003,0.00636629993095994,0.018101199995726347,8530.587014800054,8533.556790300063,left,0,5.000680100056343,None,None,,,,,,,,,,,,13_L2,001,2025-04-28_11h59.32.497,LangExperimentstress,2024.2.4,60.04311093242065,2025-04-28 12h00.03.126199 -0400,
sounds/16a_llevar.wav,CVC,Stressed,Match,present,num_1,0.0,0.2,0.929084516317274,0.964936524692279,1.08,1.131864014418682,101,10,11,12,13,14,0,0.729084516317274,0.764936524692279,0.88,0.931864014418682,16a_llevar.wav,,a,,26,26,0,,,,,None,16,right,0,6.942758399993181,None,,,,,,,0,26,26,21,8533.577572299982,,,,,,,,,,,,,,,,,,,,,,,8540.526574900025,8540.526663600001,,,,8533.566884800093,8533.57083006675,8533.577572299982,8533.577572299982,0.006512499996460974,0.01799730001948774,8535.48698799999,8540.5232998,right,0,6.942758399993181,None,None,,,,,,,,,,,,13_L2,001,2025-04-28_11h59.32.497,LangExperimentstress,2024.2.4,60.04311093242065,2025-04-28 12h00.03.126199 -0400,
sounds/07c_tumbar.wav,CVC,Unstressed,Match,past,num_2,0.0,0.2,0.9084024930273432,0.9247360728973012,1.143289673625005,1.154847989033482,101,30,31,32,33,34,0,0.708402493027343,0.724736072897301,0.943289673625005,0.954847989033482,07c_tumbar.wav,,c,,27,27,0,,,,,None,7,right,0,7.216813599923626,None,,,,,,,0,27,27,6,8540.543760700035,,,,,,,,,,,,,,,,,,,,,,,8547.7767093,8547.77679480007,,,,8540.532767100027,8540.537313666722,8540.543760700035,8540.543760700035,0.0061175000155344605,0.01807859994005412,8542.50443249999,8547.773579700035,right,0,7.216813599923626,None,None,,,,,,,,,,,,13_L2,001,2025-04-28_11h59.32.497,LangExperimentstress,2024.2.4,60.04311093242065,2025-04-28 12h00.03.126199 -0400,
sounds/12a_matar.wav,CVC,Stressed,Match,present,num_1,0.0,0.2,0.8400000000000001,0.96,1.17307472511574,1.186647497106481,101,10,11,12,13,14,0,0.64,0.76,0.97307472511574,0.986647497106481,12a_matar.wav,,a,,28,28,0,,,,,None,12,left,0,3.9647142000030726,None,,,,,,,0,28,28,25,8547.79524560005,,,,,,,,,,,,,,,,,,,,,,,8551.777035300038,8551.77712460002,,,,8547.783508500084,8547.787658266669,8547.79524560005,8547.79524560005,0.006762300035916269,0.019722400000318885,8550.004139300087,8551.773591900012,left,0,3.9647142000030726,None,None,,,,,,,,,,,,13_L2,001,2025-04-28_11h59.32.497,LangExperimentstress,2024.2.4,60.04311093242065,2025-04-28 12h00.03.126199 -0400,
sounds/24d_mirar.wav,CVC,Stressed,Mismatch,past,num_2,0.0,0.2,0.71,0.8119545789930551,0.9389863642939812,0.9746780743634248,101,40,41,42,43,44,0,0.51,0.611954578993055,0.738986364293981,0.774678074363425,24d_mirar.wav,,d,,29,29,0,,,,,space,24,left,0,6.731920700054616,None,6.022768099908717,None,,,,,0,29,29,11,8551.796349700075,,,,,,,,,,,,,,,,,,,,,,,8558.544205100043,8564.590351400082,,,,8551.784252500045,8551.787764866665,8551.796349700075,8551.796349700075,0.0071857000002637506,0.020206599961966276,8553.504336500075,8558.540803499985,left,0,6.731920700054616,None,space,8558.554082100047,8558.554082100047,6.022768099908717,None,,,,,,,,13_L2,001,2025-04-28_11h59.32.497,LangExperimentstress,2024.2.4,60.04311093242065,2025-04-28 12h00.03.126199 -0400,
sounds/27c_tirar.wav,CVC,Unstressed,Match,past,num_2,0.0,0.2,0.8119442057291659,0.8307495153356481,0.9885306495949072,0.998621303530092,101,30,31,32,33,34,0,0.611944205729166,0.630749515335648,0.788530649594907,0.798621303530092,27c_tirar.wav,,c,,30,30,0,,,,,None,27,right,0,5.791217399993911,None,,,,,,,0,30,30,10,8564.609043100034,,,,,,,,,,,,,,,,,,,,,,,8570.409834800055,8570.409913400072,,,,8564.597228200058,8564.604519966702,8564.609043100034,8564.609043100034,0.0068509000120684505,0.01949939993210137,8566.621038299985,8570.407033200026,right,0,5.791217399993911,None,None,,,,,,,,,,,,13_L2,001,2025-04-28_11h59.32.497,LangExperimentstress,2024.2.4,60.04311093242065,2025-04-28 12h00.03.126199 -0400,
sounds/38b_pagar.wav,CVC,Unstressed,Mismatch,present,num_1,0.0,0.2,1.166737304687499,1.185271158854166,1.29521061197916,1.4055712890624898,101,20,21,22,23,24,0,0.966737304687499,0.985271158854166,1.09521061197916,1.20557128906249,38b_pagar.wav,,b,,31,31,0,,,,,None,38,right,0,3.909481299924664,None,,,,,,,0,31,31,17,8570.425832599984,,,,,,,,,,,,,,,,,,,,,,,8574.344578500022,8574.34465600003,,,,8570.415889400057,8570.421170566759,8570.425832599984,8570.425832599984,0.005986700067296624,0.016767200082540512,8572.687795600039,8574.340659999987,right,0,3.909481299924664,None,None,,,,,,,,,,,,13_L2,001,2025-04-28_11h59.32.497,LangExperimentstress,2024.2.4,60.04311093242065,2025-04-28 12h00.03.126199 -0400,
sounds/28d_parar.wav,CVC,Stressed,Mismatch,past,num_2,0.0,0.2,0.8458860026041659,0.862313736979166,1.018194683159722,1.032797113715277,101,40,41,42,43,44,0,0.645886002604166,0.662313736979166,0.818194683159722,0.832797113715277,28d_parar.wav,,d,,32,32,0,,,,,None,28,left,0,6.612642100080848,None,,,,,,,0,32,32,18,8574.363711400074,,,,,,,,,,,,,,,,,,,,,,,8580.995105499984,8580.995195200085,,,,8574.351329200086,8574.354730766678,8574.363711400074,8574.363711400074,0.006696299999020994,0.02005059993825853,8576.271357499994,8580.990937000024,left,0,6.612642100080848,None,None,,,,,,,,,,,,13_L2,001,2025-04-28_11h59.32.497,LangExperimentstress,2024.2.4,60.04311093242065,2025-04-28 12h00.03.126199 -0400,
sounds/39b_manchar.wav,CVC,Unstressed,Mismatch,present,num_1,0.0,0.2,0.81,0.91203755787037,1.140584317129629,1.2139708912037,101,20,21,22,23,24,0,0.61,0.71203755787037,0.940584317129629,1.0139708912037,39b_manchar.wav,,b,,33,33,0,,,,,None,39,left,0,6.672232399927452,None,,,,,,,0,33,33,7,8581.015697200084,,,,,,,,,,,,,,,,,,,,,,,8587.694546499988,8587.694635900087,,,,8581.004341299995,8581.004998966648,8581.015697200084,8581.015697200084,0.00918149994686246,0.021577500039711595,8583.271799899987,8587.690859400085,left,0,6.672232399927452,None,None,,,,,,,,,,,,13_L2,001,2025-04-28_11h59.32.497,LangExperimentstress,2024.2.4,60.04311093242065,2025-04-28 12h00.03.126199 -0400,
sounds/34c_formar.wav,CVC,Unstressed,Match,past,num_2,0.0,0.2,0.876373676215277,0.992687651909722,1.14,1.26319767795138,101,30,31,32,33,34,0,0.676373676215277,0.792687651909722,0.94,1.06319767795138,34c_formar.wav,,c,,34,34,0,,,,,None,34,right,0,5.60498869989533,None,,,,,,,0,34,34,2,8587.714976500021,,,,,,,,,,,,,,,,,,,,,,,8593.327684400021,8593.327768000076,,,,8587.702608600026,8587.704963166678,8587.714976500021,8587.714976500021,0.008070599986240268,0.02162819996010512,8589.955520400079,8593.324529699981,right,0,5.60498869989533,None,None,,,,,,,,,,,,13_L2,001,2025-04-28_11h59.32.497,LangExperimentstress,2024.2.4,60.04311093242065,2025-04-28 12h00.03.126199 -0400,
sounds/21a_mezclar.wav,CVC,Stressed,Match,present,num_1,0.0,0.2,0.78,0.9121902777777772,1.20214212962962,1.27,101,10,11,12,13,14,0,0.58,0.712190277777777,1.00214212962962,1.07,21a_mezclar.wav,,a,,35,35,0,,,,,None,21,left,0,5.901517800055444,None,,,,,,,0,35,35,27,8593.345842499984,,,,,,,,,,,,,,,,,,,,,,,8599.260963900015,8599.261048200075,,,,8593.333872499992,8593.338601266678,8593.345842499984,8593.345842499984,0.0061397000681608915,0.019186099991202354,8595.37227599998,8599.257781099994,left,0,5.901517800055444,None,None,,,,,,,,,,,,13_L2,001,2025-04-28_11h59.32.497,LangExperimentstress,2024.2.4,60.04311093242065,2025-04-28 12h00.03.126199 -0400,
sounds/37b_pasar.wav,CVC,Unstressed,Mismatch,present,num_1,0.0,0.2,1.033132486979166,1.052087565104166,1.159499674479166,1.27702115885416,101,20,21,22,23,24,0,0.833132486979166,0.852087565104166,0.959499674479166,1.07702115885416,37b_pasar.wav,,b,,36,36,0,,,,,None,37,left,0,5.536679800017737,None,,,,,,,0,36,36,23,8599.279496000032,,,,,,,,,,,,,,,,,,,,,,,8604.829008600092,8604.829099000082,,,,8599.267938300036,8599.271845566753,8599.279496000032,8599.279496000032,0.00691620004363358,0.01962809998076409,8601.38827720005,8604.824834300089,left,0,5.536679800017737,None,None,,,,,,,,,,,,13_L2,001,2025-04-28_11h59.32.497,LangExperimentstress,2024.2.4,60.04311093242065,2025-04-28 12h00.03.126199 -0400,
sounds/40c_gastar.wav,CVC,Unstressed,Match,past,num_2,0.0,0.2,0.8300000000000001,0.8400000000000001,1.163436328125,1.183149609375,101,30,31,32,33,34,0,0.63,0.64,0.963436328125,0.983149609375,40c_gastar.wav,,c,,37,37,0,,,,,None,40,right,0,4.831738400040194,None,,,,,,,0,37,37,0,8604.848947499995,,,,,,,,,,,,,,,,,,,,,,,8609.693787800032,8609.693873399985,,,,8604.837678299984,8604.838928266723,8604.848947499995,8604.848947499995,0.008629700052551925,0.021085400017909706,8606.972293800092,8609.69063070009,right,0,4.831738400040194,None,None,,,,,,,,,,,,13_L2,001,2025-04-28_11h59.32.497,LangExperimentstress,2024.2.4,60.04311093242065,2025-04-28 12h00.03.126199 -0400,
sounds/18b_cumplir.wav,CVC,Unstressed,Mismatch,present,num_1,0.0,0.2,1.2408027271412,1.25568597366898,1.46256310040509,1.54144430700231,101,20,21,22,23,24,0,1.0408027271412,1.05568597366898,1.26256310040509,1.34144430700231,18b_cumplir.wav,,b,,38,38,0,,,,,None,18,left,0,8.634231799980626,None,,,,,,,0,38,38,29,8609.709237999981,,,,,,,,,,,,,,,,,,,,,,,8618.361317700008,8618.36138970009,,,,8609.69893319998,8609.705210266697,8609.709237999981,8609.709237999981,0.005057199974544346,0.016260199947282672,8611.888653400005,8618.358229200006,left,0,8.634231799980626,None,None,,,,,,,,,,,,13_L2,001,2025-04-28_11h59.32.497,LangExperimentstress,2024.2.4,60.04311093242065,2025-04-28 12h00.03.126199 -0400,
sounds/11a_pegar.wav,CVC,Stressed,Match,present,num_1,0.0,0.2,0.8182808977343741,0.831294515585661,0.98,1.012063288108519,101,10,11,12,13,14,0,0.618280897734374,0.631294515585661,0.78,0.812063288108519,11a_pegar.wav,,a,,39,39,0,,,,,None,11,right,0,6.879239300033078,None,,,,,,,0,39,39,3,8618.37779519998,,,,,,,,,,,,,,,,,,,,,,,8625.277053800062,8625.277109200018,,,,8618.36701180006,8618.37258816668,8618.37779519998,8618.37779519998,0.005626500002108514,0.017357199918478727,8620.322417700081,8625.274184299982,right,0,6.879239300033078,None,None,,,,,,,,,,,,13_L2,001,2025-04-28_11h59.32.497,LangExperimentstress,2024.2.4,60.04311093242065,2025-04-28 12h00.03.126199 -0400,
,,,,,,,,,,,,,,,,,,,,,,,,,,,,,,,,,,,,,,,,,,,,,,,,,,,,,,,,,,,,,,,,,,,,,,,,,,,,,,,,,,,,,,,,,,,,,,,8625.27722769999,8625.28902590007,8625.28902590007,8628.842121800059,space,3.5507111999904737,None,13_L2,001,2025-04-28_11h59.32.497,LangExperimentstress,2024.2.4,60.04311093242065,2025-04-28 12h00.03.126199 -0400,
