sounds,syll,stress_unstress,suffix,present_past,corrAns,trigger_item,trigger_senonset,trigger_verbsonset,trigger_1_F0,trigger_suffix,trigger_2_F0,ID_item,ID_senonset,ID_verbonset,ID_1_F0,ID_suffix,ID_2_F0,ms_senonset,ms_verbonset,ms_1_F0,ms_suffix,ms_2_F0,file_name,sentence,cond,combo,thisN,thisTrialN,thisRepN,key_resp_4.keys,key_resp_4.corr,key_resp_4.rt,key_resp_4.duration,key_resp_5.keys,item_id,key_resp_2.keys,key_resp_2.corr,key_resp_2.rt,key_resp_2.duration,key_resp_5.rt,key_resp_5.duration,practice_trials.thisRepN,practice_trials.thisTrialN,practice_trials.thisN,practice_trials.thisIndex,experimental_trials.thisRepN,experimental_trials.thisTrialN,experimental_trials.thisN,experimental_trials.thisIndex,thisRow.t,notes,instructions.started,instr.started,key_resp.started,instructions.stopped,key_resp.keys,key_resp.rt,key_resp.duration,init_practice.started,init_practice.stopped,test_practice.started,test_sound_2.started,key_resp_4.started,polygon.started,serialPort_item_2.started,serialPort_item_2.stopped,test_sound_2.stopped,test_practice.stopped,practice_trials.key_resp_4.keys,practice_trials.key_resp_4.corr,practice_trials.key_resp_4.rt,practice_trials.key_resp_4.duration,takeabreak.started,takeabreak.stopped,practice_trials.key_resp_5.keys,init_trials.started,init_trials.stopped,test.started,test_sound.started,key_resp_2.started,polygon_2.started,serialPort_item.started,serialPort_item.stopped,test_sound.stopped,test.stopped,experimental_trials.key_resp_2.keys,experimental_trials.key_resp_2.corr,experimental_trials.key_resp_2.rt,experimental_trials.key_resp_2.duration,experimental_trials.key_resp_5.keys,text_3.started,key_resp_5.started,experimental_trials.key_resp_5.rt,experimental_trials.key_resp_5.duration,Thanks.started,text_2.started,key_resp_thanks.started,Thanks.stopped,key_resp_thanks.keys,key_resp_thanks.rt,key_resp_thanks.duration,participant,session,date,expName,psychopyVersion,frameRate,expStart,
,,,,,,,,,,,,,,,,,,,,,,,,,,,,,,,,,,,,,,,,,,,,,,,,,,,,0.0031759999692440033,0.021424199920147657,0.021424199920147657,4906.207793999929,space,4906.161532599945,None,,,,,,,,,,,,,,,,,,,,,,,,,,,,,,,,,,,,,,,,,,,,15_L2,001,2025-04-28_16h03.21.539,LangExperimentstress,2024.2.4,60.01856974713735,2025-04-28 16h03.35.898263 -0400,
,,,,,,,,,,,,,,,,,,,,,,,,,,,,,,,,,,,,,,,,,,,,,,,,,,,,,,,,,,,4906.2079282000195,4906.208735799999,,,,,,,,,,,,,,,,,,,,,,,,,,,,,,,,,,,,,,,,,,15_L2,001,2025-04-28_16h03.21.539,LangExperimentstress,2024.2.4,60.01856974713735,2025-04-28 16h03.35.898263 -0400,
sounds/p3c_saltar.wav,CVC,Unstressed,Match,past,num_2,0.0,0.205513,0.8629519999999999,0.984841,1.219715,1.27,101,30,31,32,33,34,0.005513,0.662952,0.784841,1.019715,1.07,p3c_saltar.wav,p3,c,p3c,0,0,0,right,0,6.74097480007913,None,None,,,,,,,,0,0,0,2,,,,,4906.233043199987,,,,,,,,,,,4906.222200899967,4906.229585233268,4906.233043199987,4906.233043199987,0.013465800089761615,0.025195800000801682,4908.329327799962,4912.982107999967,right,0,6.74097480007913,None,4912.986332500004,4912.98641839996,None,,,,,,,,,,,,,,,,,,,,,,,,,,,15_L2,001,2025-04-28_16h03.21.539,LangExperimentstress,2024.2.4,60.01856974713735,2025-04-28 16h03.35.898263 -0400,
sounds/p1a_saltar.wav,CVC,Stressed,Match,present,num_1,0.0,0.205513,0.8629519999999999,0.984841,1.219715,1.27,101,10,11,12,13,14,0.005513,0.662952,0.784841,1.019715,1.07,p1a_saltar.wav,p1,a,p1a,1,1,0,left,0,2.9393229000270367,None,None,,,,,,,,0,1,1,0,,,,,4913.003245499916,,,,,,,,,,,4912.992301099934,4912.996059766683,4913.003245499916,4913.003245499916,0.005911899963393807,0.01781170000322163,4915.246421399992,4915.948845200008,left,0,2.9393229000270367,None,4915.952935199952,4915.953028399963,None,,,,,,,,,,,,,,,,,,,,,,,,,,,15_L2,001,2025-04-28_16h03.21.539,LangExperimentstress,2024.2.4,60.01856974713735,2025-04-28 16h03.35.898263 -0400,
sounds/p4d_cortar.wav,CVC,Stressed,Mismatch,past,num_2,0.0,0.205513,0.8629519999999999,0.984841,1.219715,1.27,101,40,41,42,43,44,0.005513,0.662952,0.784841,1.019715,1.07,p4d_cortar.wav,p4,d,p4d,2,2,0,right,0,3.077911200001836,None,None,,,,,,,,0,2,2,3,,,,,4915.970050400007,,,,,,,,,,,4915.959475699929,4915.962810866597,4915.970050400007,4915.970050400007,0.006485099904239178,0.017985399928875268,4918.4789638000075,4919.065004099975,right,0,3.077911200001836,None,4919.069111099932,4919.0691986000165,None,,,,,,,,,,,,,,,,,,,,,,,,,,,15_L2,001,2025-04-28_16h03.21.539,LangExperimentstress,2024.2.4,60.01856974713735,2025-04-28 16h03.35.898263 -0400,
sounds/p2b_cortar.wav,CVC,Unstressed,Mismatch,present,num_1,0.0,0.205513,0.8629519999999999,0.984841,1.219715,1.27,101,20,21,22,23,24,0.005513,0.662952,0.784841,1.019715,1.07,p2b_cortar.wav,p2,b,p2b,3,3,0,left,0,2.409132899949327,None,None,,,,,,,,0,3,3,1,,,,,4919.085247299983,,,,,,,,,,,4919.074189099949,4919.079319866669,4919.085247299983,4919.085247299983,0.00500500004272908,0.01690980000421405,4921.346373499953,4921.498863099958,left,0,2.409132899949327,None,4921.5028819999425,4921.503006099956,None,,,,,,,,,,,,,,,,,,,,,,,,,,,15_L2,001,2025-04-28_16h03.21.539,LangExperimentstress,2024.2.4,60.01856974713735,2025-04-28 16h03.35.898263 -0400,
,,,,,,,,,,,,,,,,,,,,,,,,,,,,,,,,,,,,,,,,,,,,,,,,,,,,4921.503223399981,4921.512413899996,4921.512413899996,4986.316967899911,space,64.79126460000407,None,,,,,,,,,,,,,,,,,,,,,,,,,,,,,,,,,,,,,,,,,,,,15_L2,001,2025-04-28_16h03.21.539,LangExperimentstress,2024.2.4,60.01856974713735,2025-04-28 16h03.35.898263 -0400,
,,,,,,,,,,,,,,,,,,,,,,,,,,,,,,,,,,,,,,,,,,,,,,,,,,,,,,,,,,,,,,,,,,,,,,,,,,,,4986.3170693999855,4986.318155199988,,,,,,,,,,,,,,,,,,,,,,,,,15_L2,001,2025-04-28_16h03.21.539,LangExperimentstress,2024.2.4,60.01856974713735,2025-04-28 16h03.35.898263 -0400,
sounds/09c_cargar.wav,CVC,Unstressed,Match,past,num_2,0.0,0.2,0.81286744068287,0.8382251229745361,1.032634020543981,1.090594437210648,101,30,31,32,33,34,0,0.61286744068287,0.638225122974536,0.832634020543981,0.890594437210648,09c_cargar.wav,,c,,0,0,0,,,,,None,9,right,0,2.6346910999855027,None,,,,,,,0,0,0,28,4986.347906299983,,,,,,,,,,,,,,,,,,,,,,,4989.004618800012,4989.004722199985,,,,4986.337901299936,4986.347645533278,4986.347906299983,4986.347906299983,0.019729399937205017,0.030386799946427345,4988.280847599963,4989.000370899914,right,0,2.6346910999855027,None,None,,,,,,,,,,,,15_L2,001,2025-04-28_16h03.21.539,LangExperimentstress,2024.2.4,60.01856974713735,2025-04-28 16h03.35.898263 -0400,
sounds/16a_llevar.wav,CVC,Stressed,Match,present,num_1,0.0,0.2,0.929084516317274,0.964936524692279,1.08,1.131864014418682,101,10,11,12,13,14,0,0.729084516317274,0.764936524692279,0.88,0.931864014418682,16a_llevar.wav,,a,,1,1,0,,,,,None,16,left,0,2.609321500058286,None,,,,,,,0,1,1,21,4989.02155309997,,,,,,,,,,,,,,,,,,,,,,,4991.638055399992,4991.638141399948,,,,4989.009785500006,4989.014583366636,4989.02155309997,4989.02155309997,0.005088499980047345,0.018088000011630356,4990.931268999935,4991.633804299985,left,0,2.609321500058286,None,None,,,,,,,,,,,,15_L2,001,2025-04-28_16h03.21.539,LangExperimentstress,2024.2.4,60.01856974713735,2025-04-28 16h03.35.898263 -0400,
sounds/33b_culpar.wav,CVC,Unstressed,Mismatch,present,num_1,0.0,0.2,0.8606178431336959,0.869103678029107,1.109891641372144,1.131540467434179,101,20,21,22,23,24,0,0.660617843133696,0.669103678029107,0.909891641372144,0.931540467434179,33b_culpar.wav,,b,,2,2,0,,,,,None,33,left,0,2.4075812000082806,None,,,,,,,0,2,2,35,4991.654700799962,,,,,,,,,,,,,,,,,,,,,,,4994.0716994999675,4994.071785199922,,,,4991.64351929992,4991.647659466664,4991.654700799962,4991.654700799962,0.00539599999319762,0.017708699917420745,4993.831560299965,4994.06747229991,left,0,2.4075812000082806,None,None,,,,,,,,,,,,15_L2,001,2025-04-28_16h03.21.539,LangExperimentstress,2024.2.4,60.01856974713735,2025-04-28 16h03.35.898263 -0400,
sounds/08d_filtrar.wav,CVC,Stressed,Mismatch,past,num_2,0.0,0.2,0.7526856695589441,0.87808115762362,1.118901843962886,1.172598812485867,101,40,41,42,43,44,0,0.552685669558944,0.67808115762362,0.918901843962886,0.972598812485867,08d_filtrar.wav,,d,,3,3,0,,,,,None,8,right,0,3.271549000055529,None,,,,,,,0,3,3,15,4994.087738499977,,,,,,,,,,,,,,,,,,,,,,,4997.371860399959,4997.371945299907,,,,4994.07641739992,4994.081520766664,4994.087738499977,4994.087738499977,0.0046443999744951725,0.017194999963976443,4995.847888599965,4997.367658999981,right,0,3.271549000055529,None,None,,,,,,,,,,,,15_L2,001,2025-04-28_16h03.21.539,LangExperimentstress,2024.2.4,60.01856974713735,2025-04-28 16h03.35.898263 -0400,
sounds/11a_pegar.wav,CVC,Stressed,Match,present,num_1,0.0,0.2,0.8182808977343741,0.831294515585661,0.98,1.012063288108519,101,10,11,12,13,14,0,0.618280897734374,0.631294515585661,0.78,0.812063288108519,11a_pegar.wav,,a,,4,4,0,,,,,None,11,left,0,3.9861906999722123,None,,,,,,,0,4,4,3,4997.387896299944,,,,,,,,,,,,,,,,,,,,,,,5001.386147400015,5001.386189099983,,,,4997.376852000016,4997.381935166606,4997.387896299944,4997.387896299944,0.004936799989081919,0.017118699965067208,4999.331168100005,5001.383874999941,left,0,3.9861906999722123,None,None,,,,,,,,,,,,15_L2,001,2025-04-28_16h03.21.539,LangExperimentstress,2024.2.4,60.01856974713735,2025-04-28 16h03.35.898263 -0400,
sounds/35b_secar.wav,CVC,Unstressed,Mismatch,present,num_1,0.0,0.2,0.8990044921875,1.025708658854166,1.179689416956018,1.20652606336805,101,20,21,22,23,24,0,0.6990044921875,0.825708658854166,0.979689416956018,1.00652606336805,35b_secar.wav,,b,,5,5,0,,,,,None,35,left,0,2.694046000018716,None,,,,,,,0,5,5,5,5001.401298600016,,,,,,,,,,,,,,,,,,,,,,,5004.1046114999335,5004.104697800009,,,,5001.390816999949,5001.39791226661,5001.401298600016,5001.401298600016,0.004679800011217594,0.015844899928197265,5003.547645899933,5004.100569000002,left,0,2.694046000018716,None,None,,,,,,,,,,,,15_L2,001,2025-04-28_16h03.21.539,LangExperimentstress,2024.2.4,60.01856974713735,2025-04-28 16h03.35.898263 -0400,
sounds/25b_ganar.wav,CVC,Unstressed,Mismatch,present,num_1,0.0,0.2,1.152097938368055,1.15990068760488,1.28904165650454,1.37272500435153,101,20,21,22,23,24,0,0.952097938368055,0.95990068760488,1.08904165650454,1.17272500435153,25b_ganar.wav,,b,,6,6,0,,,,,None,25,left,0,3.094545100000687,None,,,,,,,0,6,6,8,5004.120157599915,,,,,,,,,,,,,,,,,,,,,,,5007.221561499988,5007.221643999917,,,,5004.10961039993,5004.11471056665,5004.120157599915,5004.120157599915,0.004928600043058395,0.01632010005414486,5006.464791900013,5007.217633399996,left,0,3.094545100000687,None,None,,,,,,,,,,,,15_L2,001,2025-04-28_16h03.21.539,LangExperimentstress,2024.2.4,60.01856974713735,2025-04-28 16h03.35.898263 -0400,
sounds/36c_bordar.wav,CVC,Unstressed,Match,past,num_2,0.0,0.2,1.0,1.078468243634259,1.3288624855324,1.3414992042824,101,30,31,32,33,34,0,0.8,0.878468243634259,1.1288624855324,1.1414992042824,36c_bordar.wav,,c,,7,7,0,,,,,None,36,right,0,2.306182600092143,None,,,,,,,0,7,7,1,5007.236371999956,,,,,,,,,,,,,,,,,,,,,,,5009.554336300003,5009.5544146000175,,,,5007.226308999932,5007.231594766668,5007.236371999956,5007.236371999956,0.004672800074331462,0.015612800023518503,5009.515353799914,5009.550525499973,right,0,2.306182600092143,None,None,,,,,,,,,,,,15_L2,001,2025-04-28_16h03.21.539,LangExperimentstress,2024.2.4,60.01856974713735,2025-04-28 16h03.35.898263 -0400,
sounds/18b_cumplir.wav,CVC,Unstressed,Mismatch,present,num_1,0.0,0.2,1.2408027271412,1.25568597366898,1.46256310040509,1.54144430700231,101,20,21,22,23,24,0,1.0408027271412,1.05568597366898,1.26256310040509,1.34144430700231,18b_cumplir.wav,,b,,8,8,0,,,,,None,18,left,0,3.4447761999908835,None,,,,,,,0,8,8,29,5009.569252199959,,,,,,,,,,,,,,,,,,,,,,,5013.021027699928,5013.0211136,,,,5009.558832600014,5009.564930566648,5009.569252199959,5009.569252199959,0.004437800031155348,0.015669699991121888,5011.747928799945,5013.017119899974,left,0,3.4447761999908835,None,None,,,,,,,,,,,,15_L2,001,2025-04-28_16h03.21.539,LangExperimentstress,2024.2.4,60.01856974713735,2025-04-28 16h03.35.898263 -0400,
sounds/27c_tirar.wav,CVC,Unstressed,Match,past,num_2,0.0,0.2,0.8119442057291659,0.8307495153356481,0.9885306495949072,0.998621303530092,101,30,31,32,33,34,0,0.611944205729166,0.630749515335648,0.788530649594907,0.798621303530092,27c_tirar.wav,,c,,9,9,0,,,,,space,27,right,0,6.170510700088926,None,17.368607999989763,None,,,,,0,9,9,10,5013.036909899907,,,,,,,,,,,,,,,,,,,,,,,5019.221313799964,5036.617439999944,,,,5013.026057699928,5013.031394966591,5013.036909899907,5013.036909899907,0.004975000047124922,0.016934400075115263,5015.048709199997,5019.217607399914,right,0,6.170510700088926,None,space,5019.231292299926,5019.231292299926,17.368607999989763,None,,,,,,,,15_L2,001,2025-04-28_16h03.21.539,LangExperimentstress,2024.2.4,60.01856974713735,2025-04-28 16h03.35.898263 -0400,
sounds/14b_borrar.wav,CVC,Unstressed,Mismatch,present,num_1,0.0,0.2,0.72,0.770187630208333,0.851961241319444,0.964399956597222,101,20,21,22,23,24,0,0.52,0.570187630208333,0.651961241319444,0.764399956597222,14b_borrar.wav,,b,,10,10,0,,,,,None,14,left,0,2.9493008001009002,None,,,,,,,0,10,10,20,5036.6341534999665,,,,,,,,,,,,,,,,,,,,,,,5039.604668600019,5039.604741099989,,,,5036.621705199941,5036.632005866679,5036.6341534999665,5036.6341534999665,0.004209500038996339,0.01750389998778701,5038.599075099919,5039.6009522000095,left,0,2.9493008001009002,None,None,,,,,,,,,,,,15_L2,001,2025-04-28_16h03.21.539,LangExperimentstress,2024.2.4,60.01856974713735,2025-04-28 16h03.35.898263 -0400,
sounds/21a_mezclar.wav,CVC,Stressed,Match,present,num_1,0.0,0.2,0.78,0.9121902777777772,1.20214212962962,1.27,101,10,11,12,13,14,0,0.58,0.712190277777777,1.00214212962962,1.07,21a_mezclar.wav,,a,,11,11,0,,,,,None,21,left,0,2.3796372999204323,None,,,,,,,0,11,11,27,5039.618972999975,,,,,,,,,,,,,,,,,,,,,,,5042.004705199972,5042.004805199918,,,,5039.609043899924,5039.6154574666325,5039.618972999975,5039.618972999975,0.004314600024372339,0.015002299915067852,5041.649124099989,5042.001038799994,left,0,2.3796372999204323,None,None,,,,,,,,,,,,15_L2,001,2025-04-28_16h03.21.539,LangExperimentstress,2024.2.4,60.01856974713735,2025-04-28 16h03.35.898263 -0400,
sounds/07c_tumbar.wav,CVC,Unstressed,Match,past,num_2,0.0,0.2,0.9084024930273432,0.9247360728973012,1.143289673625005,1.154847989033482,101,30,31,32,33,34,0,0.708402493027343,0.724736072897301,0.943289673625005,0.954847989033482,07c_tumbar.wav,,c,,12,12,0,,,,,None,7,right,0,2.761962000047788,None,,,,,,,0,12,12,6,5042.020813499927,,,,,,,,,,,,,,,,,,,,,,,5044.802701500012,5044.802764199907,,,,5042.00906359998,5042.015437566621,5042.020813499927,5042.020813499927,0.0042872000485658646,0.01710060006007552,5043.964835399995,5044.800566199934,right,0,2.761962000047788,None,None,,,,,,,,,,,,15_L2,001,2025-04-28_16h03.21.539,LangExperimentstress,2024.2.4,60.01856974713735,2025-04-28 16h03.35.898263 -0400,
sounds/06d_soplar.wav,CVC,Stressed,Mismatch,past,num_2,0.0,0.2,0.761291666666666,0.8899999999999999,1.102139687590422,1.166665581687644,101,40,41,42,43,44,0,0.561291666666666,0.69,0.902139687590422,0.966665581687644,06d_soplar.wav,,d,,13,13,0,,,,,None,6,right,0,2.41289889998734,None,,,,,,,0,13,13,16,5044.817728900001,,,,,,,,,,,,,,,,,,,,,,,5047.2386193999555,5047.23870300001,,,,5044.80592720001,5044.815359566655,5044.817728900001,5044.817728900001,0.0031854999251663685,0.015786699950695038,5046.6991862999275,5047.235617999919,right,0,2.41289889998734,None,None,,,,,,,,,,,,15_L2,001,2025-04-28_16h03.21.539,LangExperimentstress,2024.2.4,60.01856974713735,2025-04-28 16h03.35.898263 -0400,
sounds/01d_salvar.wav,CVC,Stressed,Mismatch,past,num_2,0.0,0.2,0.8500000000000001,0.996069502314814,1.23,1.29,101,40,41,42,43,44,0,0.65,0.796069502314814,1.03,1.09,01d_salvar.wav,,d,,14,14,0,,,,,None,1,right,0,2.4716984999831766,None,,,,,,,0,14,14,37,5047.254511700012,,,,,,,,,,,,,,,,,,,,,,,5049.739024500013,5049.739114600001,,,,5047.243222999969,5047.249982466634,5047.254511700012,5047.254511700012,0.004524999996647239,0.016723299981094897,5049.315433499985,5049.735124400002,right,0,2.4716984999831766,None,None,,,,,,,,,,,,15_L2,001,2025-04-28_16h03.21.539,LangExperimentstress,2024.2.4,60.01856974713735,2025-04-28 16h03.35.898263 -0400,
sounds/20c_cubrir.wav,CVC,Unstressed,Match,past,num_2,0.0,0.2,0.980138641742621,1.01,1.192436112212021,1.28412143493692,101,30,31,32,33,34,0,0.780138641742621,0.81,0.992436112212021,1.08412143493692,20c_cubrir.wav,,c,,15,15,0,,,,,None,20,left,0,2.5560395000502467,None,,,,,,,0,15,15,31,5049.7547607999295,,,,,,,,,,,,,,,,,,,,,,,5052.3216576999985,5052.321739399922,,,,5049.744366999948,5049.749280266642,5049.7547607999295,5049.7547607999295,0.005269099958240986,0.0164698000298813,5051.898979399935,5052.317958600004,left,0,2.5560395000502467,None,None,,,,,,,,,,,,15_L2,001,2025-04-28_16h03.21.539,LangExperimentstress,2024.2.4,60.01856974713735,2025-04-28 16h03.35.898263 -0400,
sounds/34c_formar.wav,CVC,Unstressed,Match,past,num_2,0.0,0.2,0.876373676215277,0.992687651909722,1.14,1.26319767795138,101,30,31,32,33,34,0,0.676373676215277,0.792687651909722,0.94,1.06319767795138,34c_formar.wav,,c,,16,16,0,,,,,None,34,left,0,3.4220806000521407,None,,,,,,,0,16,16,2,5052.336528799962,,,,,,,,,,,,,,,,,,,,,,,5055.772615899914,5055.7727062000195,,,,5052.326896799961,5052.332222666653,5052.336528799962,5052.336528799962,0.005173300043679774,0.01561470003798604,5054.582362300018,5055.769063899992,left,0,3.4220806000521407,None,None,,,,,,,,,,,,15_L2,001,2025-04-28_16h03.21.539,LangExperimentstress,2024.2.4,60.01856974713735,2025-04-28 16h03.35.898263 -0400,
sounds/13c_montar.wav,CVC,Unstressed,Match,past,num_2,0.0,0.2,0.8800000000000001,0.98,1.24543012152777,1.2594709201388798,101,30,31,32,33,34,0,0.68,0.78,1.04543012152777,1.05947092013888,13c_montar.wav,,c,,17,17,0,,,,,None,13,right,0,2.770370800048113,None,,,,,,,0,17,17,33,5055.788340699975,,,,,,,,,,,,,,,,,,,,,,,5058.572407700005,5058.572502799914,,,,5055.77799219999,5055.783263366615,5055.788340699975,5055.788340699975,0.005298599950037897,0.016455600038170815,5058.082560500014,5058.568098799908,right,0,2.770370800048113,None,None,,,,,,,,,,,,15_L2,001,2025-04-28_16h03.21.539,LangExperimentstress,2024.2.4,60.01856974713735,2025-04-28 16h03.35.898263 -0400,
sounds/22d_dejar.wav,CVC,Stressed,Mismatch,past,num_2,0.0,0.2,0.8500000000000001,1.02,1.152543366608796,1.28794346788194,101,40,41,42,43,44,0,0.65,0.82,0.952543366608796,1.08794346788194,22d_dejar.wav,,d,,18,18,0,,,,,None,22,left,0,3.819209099980071,None,,,,,,,0,18,18,14,5058.587427499937,,,,,,,,,,,,,,,,,,,,,,,5062.4232304999605,5062.423356899992,,,,5058.577403499978,5058.582386266618,5058.587427499937,5058.587427499937,0.004907299997285008,0.01564420002978295,5060.632710799924,5062.419007499935,left,0,3.819209099980071,None,None,,,,,,,,,,,,15_L2,001,2025-04-28_16h03.21.539,LangExperimentstress,2024.2.4,60.01856974713735,2025-04-28 16h03.35.898263 -0400,
sounds/28d_parar.wav,CVC,Stressed,Mismatch,past,num_2,0.0,0.2,0.8458860026041659,0.862313736979166,1.018194683159722,1.032797113715277,101,40,41,42,43,44,0,0.645886002604166,0.662313736979166,0.818194683159722,0.832797113715277,28d_parar.wav,,d,,19,19,0,,,,,space,28,right,0,3.2954872000264004,None,6.297494899947196,None,,,,,0,19,19,18,5062.438564399956,,,,,,,,,,,,,,,,,,,,,,,5065.755846599932,5072.0691500999965,,,,5062.42771999992,5062.433072366581,5062.438564399956,5062.438564399956,0.004373100004158914,0.016199300065636635,5064.349635599996,5065.751884499914,right,0,3.2954872000264004,None,space,5065.766065099975,5065.766065099975,6.297494899947196,None,,,,,,,,15_L2,001,2025-04-28_16h03.21.539,LangExperimentstress,2024.2.4,60.01856974713735,2025-04-28 16h03.35.898263 -0400,
sounds/17d_tragar.wav,CVC,Stressed,Mismatch,past,num_2,0.0,0.2,1.070609360532407,1.117973654513888,1.30915316840277,1.35458539534397,101,40,41,42,43,44,0,0.870609360532407,0.917973654513888,1.10915316840277,1.15458539534397,17d_tragar.wav,,d,,20,20,0,,,,,None,17,right,0,2.609604600002058,None,,,,,,,0,20,20,26,5072.085364299943,,,,,,,,,,,,,,,,,,,,,,,5074.705931899953,5074.706038999953,,,,5072.073458199971,5072.08338156663,5072.085364299943,5072.085364299943,0.004251700011081994,0.01712849992327392,5074.383001499926,5074.70198309992,right,0,2.609604600002058,None,None,,,,,,,,,,,,15_L2,001,2025-04-28_16h03.21.539,LangExperimentstress,2024.2.4,60.01856974713735,2025-04-28 16h03.35.898263 -0400,
sounds/03b_limpiar.wav,CVC,Unstressed,Mismatch,present,num_1,0.0,0.2,0.8500000000000001,0.932367621527777,1.26878515625,1.35808463541666,101,20,21,22,23,24,0,0.65,0.732367621527777,1.06878515625,1.15808463541666,03b_limpiar.wav,,b,,21,21,0,,,,,None,3,left,0,2.0842388999881223,None,,,,,,,0,21,21,4,5074.722043999936,,,,,,,,,,,,,,,,,,,,,,,5076.833230899996,5076.833318399964,,,,5074.7107846,5074.716337866677,5074.722043999936,5074.722043999936,0.004752499982714653,0.01683519990183413,,5076.818534599966,left,0,2.0842388999881223,None,None,,,,,,,,,,,,15_L2,001,2025-04-28_16h03.21.539,LangExperimentstress,2024.2.4,60.01856974713735,2025-04-28 16h03.35.898263 -0400,
sounds/05a_fumar.wav,CVC,Stressed,Match,present,num_1,0.0,0.2,1.15,1.36712555700231,1.48,1.56308830295138,101,10,11,12,13,14,0,0.95,1.16712555700231,1.28,1.36308830295138,05a_fumar.wav,,a,,22,22,0,,,,,None,5,left,0,2.9746296999510378,None,,,,,,,0,22,22,38,5076.848069099942,,,,,,,,,,,,,,,,,,,,,,,5079.838372599916,5079.838441399974,,,,5076.837670799927,5076.849580533344,5076.848069099942,5076.848069099942,0.004372700001113117,0.01567669992800802,5079.216230599908,5079.83485939994,left,0,2.9746296999510378,None,None,,,,,,,,,,,,15_L2,001,2025-04-28_16h03.21.539,LangExperimentstress,2024.2.4,60.01856974713735,2025-04-28 16h03.35.898263 -0400,
sounds/15b_partir.wav,CVC,Unstressed,Mismatch,present,num_1,0.0,0.2,0.826865400752314,0.842973894883327,1.1042888772729471,1.120815958498066,101,20,21,22,23,24,0,0.626865400752314,0.642973894883327,0.904288877272947,0.920815958498066,15b_partir.wav,,b,,23,23,0,,,,,None,15,left,0,3.9463672999991104,None,,,,,,,0,23,23,22,5079.8526849999325,,,,,,,,,,,,,,,,,,,,,,,5083.806153599988,5083.806232100003,,,,5079.84286809992,5079.849437566652,5079.8526849999325,5079.8526849999325,0.004326099995523691,0.014978599967435002,5081.9167100000195,5083.802387899952,left,0,3.9463672999991104,None,None,,,,,,,,,,,,15_L2,001,2025-04-28_16h03.21.539,LangExperimentstress,2024.2.4,60.01856974713735,2025-04-28 16h03.35.898263 -0400,
sounds/38b_pagar.wav,CVC,Unstressed,Mismatch,present,num_1,0.0,0.2,1.166737304687499,1.185271158854166,1.29521061197916,1.4055712890624898,101,20,21,22,23,24,0,0.966737304687499,0.985271158854166,1.09521061197916,1.20557128906249,38b_pagar.wav,,b,,24,24,0,,,,,None,38,left,0,4.7761565000982955,None,,,,,,,0,24,24,17,5083.822290299926,,,,,,,,,,,,,,,,,,,,,,,5088.604646499967,5088.604720799951,,,,5083.811143299914,5083.816571366686,5083.822290299926,5083.822290299926,0.004940400016494095,0.017291099997237325,5086.083743999945,5088.602488299948,left,0,4.7761565000982955,None,None,,,,,,,,,,,,15_L2,001,2025-04-28_16h03.21.539,LangExperimentstress,2024.2.4,60.01856974713735,2025-04-28 16h03.35.898263 -0400,
sounds/04c_plantar.wav,CVC,Unstressed,Match,past,num_2,0.0,0.2,0.862877574458911,0.9343518689653568,1.20493812332404,1.21897569287037,101,30,31,32,33,34,0,0.662877574458911,0.734351868965357,1.00493812332404,1.01897569287037,04c_plantar.wav,,c,,25,25,0,,,,,None,4,right,0,2.2829087999416515,None,,,,,,,0,25,25,9,5088.619083199999,,,,,,,,,,,,,,,,,,,,,,,5090.92291199998,5090.923029299942,,,,5088.608762499993,5088.616724466618,5088.619083199999,5088.619083199999,0.0040596999460831285,0.015161899966187775,5090.666760999942,5090.919079400017,right,0,2.2829087999416515,None,None,,,,,,,,,,,,15_L2,001,2025-04-28_16h03.21.539,LangExperimentstress,2024.2.4,60.01856974713735,2025-04-28 16h03.35.898263 -0400,
sounds/29a_pesar.wav,CVC,Stressed,Match,present,num_1,0.0,0.2,0.91328417532552,0.925531286730473,1.03,1.150619522602117,101,10,11,12,13,14,0,0.71328417532552,0.725531286730473,0.83,0.950619522602117,29a_pesar.wav,,a,,26,26,0,,,,,None,29,left,0,2.8039640000788495,None,,,,,,,0,26,26,32,5090.938690099982,,,,,,,,,,,,,,,,,,,,,,,5093.755364499986,5093.75544749992,,,,5090.9277007000055,5090.933446666637,5090.938690099982,5090.938690099982,0.004696299904026091,0.016547499923035502,5092.849963099929,5093.752422299935,left,0,2.8039640000788495,None,None,,,,,,,,,,,,15_L2,001,2025-04-28_16h03.21.539,LangExperimentstress,2024.2.4,60.01856974713735,2025-04-28 16h03.35.898263 -0400,
sounds/24d_mirar.wav,CVC,Stressed,Mismatch,past,num_2,0.0,0.2,0.71,0.8119545789930551,0.9389863642939812,0.9746780743634248,101,40,41,42,43,44,0,0.51,0.611954578993055,0.738986364293981,0.774678074363425,24d_mirar.wav,,d,,27,27,0,,,,,None,24,right,0,2.39642330002971,None,,,,,,,0,27,27,11,5093.77065229998,,,,,,,,,,,,,,,,,,,,,,,5096.172903499915,5096.172974199988,,,,5093.759348599939,5093.766720666612,5093.77065229998,5093.77065229998,0.003906599944457412,0.016067599994130433,5095.466731799999,5096.169173199916,right,0,2.39642330002971,None,None,,,,,,,,,,,,15_L2,001,2025-04-28_16h03.21.539,LangExperimentstress,2024.2.4,60.01856974713735,2025-04-28 16h03.35.898263 -0400,
sounds/26a_bajar.wav,CVC,Stressed,Match,present,num_1,0.0,0.2,0.77,0.8999999999999999,1.03,1.171181705729166,101,10,11,12,13,14,0,0.57,0.7,0.83,0.971181705729166,26a_bajar.wav,,a,,28,28,0,,,,,None,26,right,0,3.291120699956082,None,,,,,,,0,28,28,13,5096.186862799921,,,,,,,,,,,,,,,,,,,,,,,5099.49047989992,5099.490569899906,,,,5096.176671199966,5096.183229266611,5096.186862799921,5096.186862799921,0.0037085999501869082,0.014644699986092746,5098.266869899933,5099.486073600012,right,0,3.291120699956082,None,None,,,,,,,,,,,,15_L2,001,2025-04-28_16h03.21.539,LangExperimentstress,2024.2.4,60.01856974713735,2025-04-28 16h03.35.898263 -0400,
sounds/40c_gastar.wav,CVC,Unstressed,Match,past,num_2,0.0,0.2,0.8300000000000001,0.8400000000000001,1.163436328125,1.183149609375,101,30,31,32,33,34,0,0.63,0.64,0.963436328125,0.983149609375,40c_gastar.wav,,c,,29,29,0,,,,,space,40,left,0,3.028937999974005,None,6.20770650007762,None,,,,,0,29,29,0,5099.505598599906,,,,,,,,,,,,,,,,,,,,,,,5102.5558328999905,5108.78617639991,,,,5099.495811000001,5099.500349966638,5099.505598599906,5099.505598599906,0.005282499943859875,0.015866499976255,5101.617200299981,5102.552464699955,left,0,3.028937999974005,None,space,5102.566966800019,5102.566966800019,6.20770650007762,None,,,,,,,,15_L2,001,2025-04-28_16h03.21.539,LangExperimentstress,2024.2.4,60.01856974713735,2025-04-28 16h03.35.898263 -0400,
sounds/39b_manchar.wav,CVC,Unstressed,Mismatch,present,num_1,0.0,0.2,0.81,0.91203755787037,1.140584317129629,1.2139708912037,101,20,21,22,23,24,0,0.61,0.71203755787037,0.940584317129629,1.0139708912037,39b_manchar.wav,,b,,30,30,0,,,,,None,39,left,0,2.45910019997973,None,,,,,,,0,30,30,7,5108.803359500016,,,,,,,,,,,,,,,,,,,,,,,5111.273780899937,5111.273867800017,,,,5108.791309199994,5108.800365566571,5108.803359500016,5108.803359500016,0.005126000032760203,0.018209600006230175,5111.067326899967,5111.269689999986,left,0,2.45910019997973,None,None,,,,,,,,,,,,15_L2,001,2025-04-28_16h03.21.539,LangExperimentstress,2024.2.4,60.01856974713735,2025-04-28 16h03.35.898263 -0400,
sounds/19a_marcar.wav,CVC,Stressed,Match,present,num_1,0.0,0.2,0.8400000000000001,0.97,1.245718359375,1.273519140625,101,10,11,12,13,14,0,0.64,0.77,1.045718359375,1.073519140625,19a_marcar.wav,,a,,31,31,0,,,,,None,19,right,0,2.347905599977821,None,,,,,,,0,31,31,19,5111.290105099906,,,,,,,,,,,,,,,,,,,,,,,5113.657428000006,5113.657517499989,,,,5111.2780238999985,5111.283820166664,5111.290105099906,5111.290105099906,0.004166900063864887,0.017035200027748942,5113.183688999969,5113.653162600007,right,0,2.347905599977821,None,None,,,,,,,,,,,,15_L2,001,2025-04-28_16h03.21.539,LangExperimentstress,2024.2.4,60.01856974713735,2025-04-28 16h03.35.898263 -0400,
sounds/30a_fundar.wav,CVC,Stressed,Match,present,num_1,0.0,0.2,0.77,0.91,1.112685546875,1.12,101,10,11,12,13,14,0,0.57,0.71,0.912685546875,0.92,30a_fundar.wav,,a,,32,32,0,,,,,None,30,left,0,2.5324928999179974,None,,,,,,,0,32,32,36,5113.674413500004,,,,,,,,,,,,,,,,,,,,,,,5116.223835199955,5116.2239779999945,,,,5113.662668099976,5113.667296466596,5113.674413500004,5113.674413500004,0.005174500052817166,0.017887900001369417,5115.83393949992,5116.219894299982,left,0,2.5324928999179974,None,None,,,,,,,,,,,,15_L2,001,2025-04-28_16h03.21.539,LangExperimentstress,2024.2.4,60.01856974713735,2025-04-28 16h03.35.898263 -0400,
sounds/10d_vender.wav,CVC,Stressed,Mismatch,past,num_2,0.0,0.2,0.832830209056713,0.8775468199411529,1.109501330306288,1.158928471023364,101,40,41,42,43,44,0,0.632830209056713,0.677546819941153,0.909501330306288,0.958928471023364,10d_vender.wav,,d,,33,33,0,,,,,None,10,left,0,3.094494100078009,None,,,,,,,0,33,33,12,5116.240099299932,,,,,,,,,,,,,,,,,,,,,,,5119.339536299929,5119.339630099945,,,,5116.228797899908,5116.234032366603,5116.240099299932,5116.240099299932,0.004834200022742152,0.016938599990680814,5118.151455699932,5119.336728199967,left,0,3.094494100078009,None,None,,,,,,,,,,,,15_L2,001,2025-04-28_16h03.21.539,LangExperimentstress,2024.2.4,60.01856974713735,2025-04-28 16h03.35.898263 -0400,
sounds/12a_matar.wav,CVC,Stressed,Match,present,num_1,0.0,0.2,0.8400000000000001,0.96,1.17307472511574,1.186647497106481,101,10,11,12,13,14,0,0.64,0.76,0.97307472511574,0.986647497106481,12a_matar.wav,,a,,34,34,0,,,,,None,12,left,0,2.913204599986784,None,,,,,,,0,34,34,25,5119.356954699964,,,,,,,,,,,,,,,,,,,,,,,5122.289829000016,5122.289896399947,,,,5119.3450807000045,5119.350697566584,5119.356954699964,5119.356954699964,0.00547760003246367,0.01854379998985678,5121.550999299972,5122.286448500003,left,0,2.913204599986784,None,None,,,,,,,,,,,,15_L2,001,2025-04-28_16h03.21.539,LangExperimentstress,2024.2.4,60.01856974713735,2025-04-28 16h03.35.898263 -0400,
sounds/23a_tomar.wav,CVC,Stressed,Match,present,num_1,0.0,0.2,0.9453179615162032,0.95,1.08,1.158644495081018,101,10,11,12,13,14,0,0.745317961516203,0.75,0.88,0.958644495081018,23a_tomar.wav,,a,,35,35,0,,,,,None,23,left,0,3.2948010000400245,None,,,,,,,0,35,35,39,5122.303269999917,,,,,,,,,,,,,,,,,,,,,,,5125.607986699906,5125.608116899966,,,,5122.29336339992,5122.300758366651,5122.303269999917,5122.303269999917,0.003484999993816018,0.01426780002657324,5124.216902300017,5125.603885899996,left,0,3.2948010000400245,None,None,,,,,,,,,,,,15_L2,001,2025-04-28_16h03.21.539,LangExperimentstress,2024.2.4,60.01856974713735,2025-04-28 16h03.35.898263 -0400,
sounds/02c_buscar.wav,CVC,Unstressed,Match,past,num_2,0.0,0.2,0.8700000000000001,1.07,1.26,1.40703946035879,101,30,31,32,33,34,0,0.67,0.87,1.06,1.20703946035879,02c_buscar.wav,,c,,36,36,0,,,,,None,2,right,0,2.461128400056623,None,,,,,,,0,36,36,34,5125.626074299915,,,,,,,,,,,,,,,,,,,,,,,5128.106483399984,5128.10658329993,,,,5125.613919099909,5125.617890766651,5125.626074299915,5125.626074299915,0.005850599962286651,0.01923269999679178,5127.76784929994,5128.103156299912,right,0,2.461128400056623,None,None,,,,,,,,,,,,15_L2,001,2025-04-28_16h03.21.539,LangExperimentstress,2024.2.4,60.01856974713735,2025-04-28 16h03.35.898263 -0400,
sounds/32d_pulsar.wav,CVC,Stressed,Mismatch,past,num_2,0.0,0.2,0.796440212673611,0.8294641710069439,0.99,1.097783832465277,101,40,41,42,43,44,0,0.596440212673611,0.629464171006944,0.79,0.897783832465277,32d_pulsar.wav,,d,,37,37,0,,,,,None,32,left,0,2.1563086000969633,None,,,,,,,0,37,37,24,5128.1230758000165,,,,,,,,,,,,,,,,,,,,,,,5130.291070699925,5130.291174999904,,,,5128.111670500017,5128.117398166625,5128.1230758000165,5128.1230758000165,0.0051102000288665295,0.017540400032885373,5129.934207799961,5130.286763399956,left,0,2.1563086000969633,None,None,,,,,,,,,,,,15_L2,001,2025-04-28_16h03.21.539,LangExperimentstress,2024.2.4,60.01856974713735,2025-04-28 16h03.35.898263 -0400,
sounds/31d_tocar.wav,CVC,Stressed,Mismatch,past,num_2,0.0,0.2,0.8493931756807,0.8650112062639721,1.006860547391531,1.049162047334928,101,40,41,42,43,44,0,0.6493931756807,0.665011206263972,0.806860547391531,0.849162047334928,31d_tocar.wav,,d,,38,38,0,,,,,None,31,right,0,3.1167497999267653,None,,,,,,,0,38,38,30,5130.305979599943,,,,,,,,,,,,,,,,,,,,,,,5133.440376100014,5133.440457999939,,,,5130.296035600011,5130.300907266621,5130.305979599943,5130.305979599943,0.004868400050327182,0.01567850005812943,5132.217535399948,5133.436466699932,right,0,3.1167497999267653,None,None,,,,,,,,,,,,15_L2,001,2025-04-28_16h03.21.539,LangExperimentstress,2024.2.4,60.01856974713735,2025-04-28 16h03.35.898263 -0400,
sounds/37b_pasar.wav,CVC,Unstressed,Mismatch,present,num_1,0.0,0.2,1.033132486979166,1.052087565104166,1.159499674479166,1.27702115885416,101,20,21,22,23,24,0,0.833132486979166,0.852087565104166,0.959499674479166,1.07702115885416,37b_pasar.wav,,b,,39,39,0,,,,,None,37,right,0,4.03175820002798,None,,,,,,,0,39,39,23,5133.45493389992,,,,,,,,,,,,,,,,,,,,,,,5137.5073872999055,5137.507481099921,,,,5133.44495429995,5133.4508216665745,5133.45493389992,5133.45493389992,0.00451879994943738,0.015265399939380586,5135.567692999961,5137.503603499965,right,0,4.03175820002798,None,None,,,,,,,,,,,,15_L2,001,2025-04-28_16h03.21.539,LangExperimentstress,2024.2.4,60.01856974713735,2025-04-28 16h03.35.898263 -0400,
,,,,,,,,,,,,,,,,,,,,,,,,,,,,,,,,,,,,,,,,,,,,,,,,,,,,,,,,,,,,,,,,,,,,,,,,,,,,,,,,,,,,,,,,,,,,,,,5137.507716999971,5137.517861799919,5137.517861799919,5155.02076549991,space,17.497442599968053,None,15_L2,001,2025-04-28_16h03.21.539,LangExperimentstress,2024.2.4,60.01856974713735,2025-04-28 16h03.35.898263 -0400,
