sounds,syll,stress_unstress,suffix,present_past,corrAns,trigger_item,trigger_senonset,trigger_verbsonset,trigger_1_F0,trigger_suffix,trigger_2_F0,ID_item,ID_senonset,ID_verbonset,ID_1_F0,ID_suffix,ID_2_F0,ms_senonset,ms_verbonset,ms_1_F0,ms_suffix,ms_2_F0,file_name,sentence,cond,combo,thisN,thisTrialN,thisRepN,key_resp_4.keys,key_resp_4.corr,key_resp_4.rt,key_resp_4.duration,key_resp_5.keys,item_id,key_resp_2.keys,key_resp_2.corr,key_resp_2.rt,key_resp_2.duration,key_resp_5.rt,key_resp_5.duration,practice_trials.thisRepN,practice_trials.thisTrialN,practice_trials.thisN,practice_trials.thisIndex,experimental_trials.thisRepN,experimental_trials.thisTrialN,experimental_trials.thisN,experimental_trials.thisIndex,thisRow.t,notes,instructions.started,instr.started,key_resp.started,instructions.stopped,key_resp.keys,key_resp.rt,key_resp.duration,init_practice.started,init_practice.stopped,test_practice.started,test_sound_2.started,key_resp_4.started,polygon.started,serialPort_item_2.started,serialPort_item_2.stopped,test_sound_2.stopped,test_practice.stopped,practice_trials.key_resp_4.keys,practice_trials.key_resp_4.corr,practice_trials.key_resp_4.rt,practice_trials.key_resp_4.duration,takeabreak.started,takeabreak.stopped,practice_trials.key_resp_5.keys,init_trials.started,init_trials.stopped,test.started,test_sound.started,key_resp_2.started,polygon_2.started,serialPort_item.started,serialPort_item.stopped,test_sound.stopped,test.stopped,experimental_trials.key_resp_2.keys,experimental_trials.key_resp_2.corr,experimental_trials.key_resp_2.rt,experimental_trials.key_resp_2.duration,experimental_trials.key_resp_5.keys,text_3.started,key_resp_5.started,experimental_trials.key_resp_5.rt,experimental_trials.key_resp_5.duration,Thanks.started,text_2.started,key_resp_thanks.started,Thanks.stopped,key_resp_thanks.keys,key_resp_thanks.rt,key_resp_thanks.duration,participant,session,date,expName,psychopyVersion,frameRate,expStart,
,,,,,,,,,,,,,,,,,,,,,,,,,,,,,,,,,,,,,,,,,,,,,,,,,,,,0.0026951000036206096,0.019766199999139644,0.019766199999139644,2426.873592899996,space,2426.831737399989,None,,,,,,,,,,,,,,,,,,,,,,,,,,,,,,,,,,,,,,,,,,,,18_L2,001,2025-04-30_09h56.31.350,LangExperimentstress,2024.2.4,59.9221850509196,2025-04-30 09h56.48.484506 -0400,
,,,,,,,,,,,,,,,,,,,,,,,,,,,,,,,,,,,,,,,,,,,,,,,,,,,,,,,,,,,2426.8736869999993,2426.8743438999954,,,,,,,,,,,,,,,,,,,,,,,,,,,,,,,,,,,,,,,,,,18_L2,001,2025-04-30_09h56.31.350,LangExperimentstress,2024.2.4,59.9221850509196,2025-04-30 09h56.48.484506 -0400,
sounds/p3c_saltar.wav,CVC,Unstressed,Match,past,num_2,0.0,0.205513,0.8629519999999999,0.984841,1.219715,1.27,101,30,31,32,33,34,0.005513,0.662952,0.784841,1.019715,1.07,p3c_saltar.wav,p3,c,p3c,0,0,0,right,0,9.333257400008733,None,None,,,,,,,,0,0,0,2,,,,,2426.901865699998,,,,,,,,,,,2426.8902296000015,2426.9047900999985,2426.901865699998,2426.901865699998,0.01590730001043994,0.02837549999821931,2428.9877377999946,2436.2407480999973,right,0,9.333257400008733,None,2436.2448207999987,2436.2449579999957,None,,,,,,,,,,,,,,,,,,,,,,,,,,,18_L2,001,2025-04-30_09h56.31.350,LangExperimentstress,2024.2.4,59.9221850509196,2025-04-30 09h56.48.484506 -0400,
sounds/p1a_saltar.wav,CVC,Stressed,Match,present,num_1,0.0,0.205513,0.8629519999999999,0.984841,1.219715,1.27,101,10,11,12,13,14,0.005513,0.662952,0.784841,1.019715,1.07,p1a_saltar.wav,p1,a,p1a,1,1,0,left,0,3.611236700002337,None,None,,,,,,,,0,1,1,0,,,,,2436.263111299995,,,,,,,,,,,2436.2525980999926,2436.2547418666695,2436.263111299995,2436.263111299995,0.007727799995336682,0.019038300000829622,2438.521241299997,2439.890485600001,left,0,3.611236700002337,None,2439.8947075000033,2439.89479939999,None,,,,,,,,,,,,,,,,,,,,,,,,,,,18_L2,001,2025-04-30_09h56.31.350,LangExperimentstress,2024.2.4,59.9221850509196,2025-04-30 09h56.48.484506 -0400,
sounds/p2b_cortar.wav,CVC,Unstressed,Mismatch,present,num_1,0.0,0.205513,0.8629519999999999,0.984841,1.219715,1.27,101,20,21,22,23,24,0.005513,0.662952,0.784841,1.019715,1.07,p2b_cortar.wav,p2,b,p2b,2,2,0,left,0,2.7292523000069195,None,None,,,,,,,,0,2,2,1,,,,,2439.913464199999,,,,,,,,,,,2439.9032930999965,2439.904708166669,2439.913464199999,2439.913464199999,0.008551899998565204,0.019570800010114908,2442.1876059999922,2442.658491199996,left,0,2.7292523000069195,None,2442.662641799994,2442.662722699999,None,,,,,,,,,,,,,,,,,,,,,,,,,,,18_L2,001,2025-04-30_09h56.31.350,LangExperimentstress,2024.2.4,59.9221850509196,2025-04-30 09h56.48.484506 -0400,
sounds/p4d_cortar.wav,CVC,Stressed,Mismatch,past,num_2,0.0,0.205513,0.8629519999999999,0.984841,1.219715,1.27,101,40,41,42,43,44,0.005513,0.662952,0.784841,1.019715,1.07,p4d_cortar.wav,p4,d,p4d,3,3,0,right,0,4.241131700007827,None,None,,,,,,,,0,3,3,3,,,,,2442.6817904999916,,,,,,,,,,,2442.6709286999976,2442.672789366658,2442.6817904999916,2442.6817904999916,0.008236399997258559,0.02031409999472089,2445.187677099995,2446.940447400004,right,0,4.241131700007827,None,2446.944829,2446.9449158999923,None,,,,,,,,,,,,,,,,,,,,,,,,,,,18_L2,001,2025-04-30_09h56.31.350,LangExperimentstress,2024.2.4,59.9221850509196,2025-04-30 09h56.48.484506 -0400,
,,,,,,,,,,,,,,,,,,,,,,,,,,,,,,,,,,,,,,,,,,,,,,,,,,,,2446.9451438999968,2446.954661800002,2446.954661800002,2525.3073218999925,space,78.33659099999932,None,,,,,,,,,,,,,,,,,,,,,,,,,,,,,,,,,,,,,,,,,,,,18_L2,001,2025-04-30_09h56.31.350,LangExperimentstress,2024.2.4,59.9221850509196,2025-04-30 09h56.48.484506 -0400,
,,,,,,,,,,,,,,,,,,,,,,,,,,,,,,,,,,,,,,,,,,,,,,,,,,,,,,,,,,,,,,,,,,,,,,,,,,,,2525.3074530000013,2525.3082712999894,,,,,,,,,,,,,,,,,,,,,,,,,18_L2,001,2025-04-30_09h56.31.350,LangExperimentstress,2024.2.4,59.9221850509196,2025-04-30 09h56.48.484506 -0400,
sounds/13c_montar.wav,CVC,Unstressed,Match,past,num_2,0.0,0.2,0.8800000000000001,0.98,1.24543012152777,1.2594709201388798,101,30,31,32,33,34,0,0.68,0.78,1.04543012152777,1.05947092013888,13c_montar.wav,,c,,0,0,0,,,,,None,13,right,0,3.079854700001306,None,,,,,,,0,0,0,33,2525.339715599999,,,,,,,,,,,,,,,,,,,,,,,2528.428397399999,2528.4284880999912,,,,2525.329256600002,2525.3380755333283,2525.339715599999,2525.339715599999,0.020975899999029934,0.031989199997042306,2527.638056099997,2528.424420299998,right,0,3.079854700001306,None,None,,,,,,,,,,,,18_L2,001,2025-04-30_09h56.31.350,LangExperimentstress,2024.2.4,59.9221850509196,2025-04-30 09h56.48.484506 -0400,
sounds/19a_marcar.wav,CVC,Stressed,Match,present,num_1,0.0,0.2,0.8400000000000001,0.97,1.245718359375,1.273519140625,101,10,11,12,13,14,0,0.64,0.77,1.045718359375,1.073519140625,19a_marcar.wav,,a,,1,1,0,,,,,None,19,left,0,2.8514787000021897,None,,,,,,,0,1,1,19,2528.447560300003,,,,,,,,,,,,,,,,,,,,,,,2531.3116383000015,2531.3117253999953,,,,2528.4371929999907,2528.4386897666595,2528.447560300003,2528.447560300003,0.008743099999264814,0.020080500005860813,2530.3547389000014,2531.307456399998,left,0,2.8514787000021897,None,None,,,,,,,,,,,,18_L2,001,2025-04-30_09h56.31.350,LangExperimentstress,2024.2.4,59.9221850509196,2025-04-30 09h56.48.484506 -0400,
sounds/07c_tumbar.wav,CVC,Unstressed,Match,past,num_2,0.0,0.2,0.9084024930273432,0.9247360728973012,1.143289673625005,1.154847989033482,101,30,31,32,33,34,0,0.708402493027343,0.724736072897301,0.943289673625005,0.954847989033482,07c_tumbar.wav,,c,,2,2,0,,,,,None,7,right,0,6.248232800004189,None,,,,,,,0,2,2,6,2531.331399100003,,,,,,,,,,,,,,,,,,,,,,,2537.5948422999936,2537.5949277000036,,,,2531.319358599998,2531.3214790666575,2531.331399100003,2531.331399100003,0.00774279999313876,0.02086639999470208,2533.288010999997,2537.590517299992,right,0,6.248232800004189,None,None,,,,,,,,,,,,18_L2,001,2025-04-30_09h56.31.350,LangExperimentstress,2024.2.4,59.9221850509196,2025-04-30 09h56.48.484506 -0400,
sounds/37b_pasar.wav,CVC,Unstressed,Mismatch,present,num_1,0.0,0.2,1.033132486979166,1.052087565104166,1.159499674479166,1.27702115885416,101,20,21,22,23,24,0,0.833132486979166,0.852087565104166,0.959499674479166,1.07702115885416,37b_pasar.wav,,b,,3,3,0,,,,,None,37,left,0,2.7477976999944076,None,,,,,,,0,3,3,23,2537.6147149000026,,,,,,,,,,,,,,,,,,,,,,,2540.378536899996,2540.3786162999895,,,,2537.603000999996,2537.6045843666693,2537.6147149000026,2537.6147149000026,0.008217199996579438,0.021054900003946386,2539.7376509000023,2540.3743445,left,0,2.7477976999944076,None,None,,,,,,,,,,,,18_L2,001,2025-04-30_09h56.31.350,LangExperimentstress,2024.2.4,59.9221850509196,2025-04-30 09h56.48.484506 -0400,
sounds/33b_culpar.wav,CVC,Unstressed,Mismatch,present,num_1,0.0,0.2,0.8606178431336959,0.869103678029107,1.109891641372144,1.131540467434179,101,20,21,22,23,24,0,0.660617843133696,0.669103678029107,0.909891641372144,0.931540467434179,33b_culpar.wav,,b,,4,4,0,,,,,None,33,left,0,2.9321836000017356,None,,,,,,,0,4,4,35,2540.398230699997,,,,,,,,,,,,,,,,,,,,,,,2543.3441328999907,2543.3442503999977,,,,2540.386601499995,2540.388471066665,2540.398230699997,2540.398230699997,0.008081400010269135,0.020776600009412505,2542.571230200003,2543.3404494999995,left,0,2.9321836000017356,None,None,,,,,,,,,,,,18_L2,001,2025-04-30_09h56.31.350,LangExperimentstress,2024.2.4,59.9221850509196,2025-04-30 09h56.48.484506 -0400,
sounds/27c_tirar.wav,CVC,Unstressed,Match,past,num_2,0.0,0.2,0.8119442057291659,0.8307495153356481,0.9885306495949072,0.998621303530092,101,30,31,32,33,34,0,0.611944205729166,0.630749515335648,0.788530649594907,0.798621303530092,27c_tirar.wav,,c,,5,5,0,,,,,None,27,right,0,2.6317088000068907,None,,,,,,,0,5,5,10,2543.3621293999895,,,,,,,,,,,,,,,,,,,,,,,2546.010742700004,2546.0108297999977,,,,2543.350516999999,2543.354487466659,2543.3621293999895,2543.3621293999895,0.00627899999381043,0.01884389999031555,2545.3545618999924,2546.0073051999934,right,0,2.6317088000068907,None,None,,,,,,,,,,,,18_L2,001,2025-04-30_09h56.31.350,LangExperimentstress,2024.2.4,59.9221850509196,2025-04-30 09h56.48.484506 -0400,
sounds/17d_tragar.wav,CVC,Stressed,Mismatch,past,num_2,0.0,0.2,1.070609360532407,1.117973654513888,1.30915316840277,1.35458539534397,101,40,41,42,43,44,0,0.870609360532407,0.917973654513888,1.10915316840277,1.15458539534397,17d_tragar.wav,,d,,6,6,0,,,,,None,17,right,0,3.0058121000038227,None,,,,,,,0,6,6,26,2546.0294520000025,,,,,,,,,,,,,,,,,,,,,,,2549.044351699995,2549.04444279999,,,,2546.017584000001,2546.021411766666,2546.0294520000025,2546.0294520000025,0.006794600005378015,0.019828799995593727,2548.337934199997,2549.040933600001,right,0,3.0058121000038227,None,None,,,,,,,,,,,,18_L2,001,2025-04-30_09h56.31.350,LangExperimentstress,2024.2.4,59.9221850509196,2025-04-30 09h56.48.484506 -0400,
sounds/02c_buscar.wav,CVC,Unstressed,Match,past,num_2,0.0,0.2,0.8700000000000001,1.07,1.26,1.40703946035879,101,30,31,32,33,34,0,0.67,0.87,1.06,1.20703946035879,02c_buscar.wav,,c,,7,7,0,,,,,None,2,right,0,3.559115500000189,None,,,,,,,0,7,7,34,2549.0609272,,,,,,,,,,,,,,,,,,,,,,,2552.6291959999944,2552.629288199998,,,,2549.0509653999907,2549.0550924666645,2549.0609272,2549.0609272,0.006651700008660555,0.017386200008331798,2551.1874589999934,2552.625027599992,right,0,3.559115500000189,None,None,,,,,,,,,,,,18_L2,001,2025-04-30_09h56.31.350,LangExperimentstress,2024.2.4,59.9221850509196,2025-04-30 09h56.48.484506 -0400,
sounds/12a_matar.wav,CVC,Stressed,Match,present,num_1,0.0,0.2,0.8400000000000001,0.96,1.17307472511574,1.186647497106481,101,10,11,12,13,14,0,0.64,0.76,0.97307472511574,0.986647497106481,12a_matar.wav,,a,,8,8,0,,,,,None,12,left,0,2.5449291999975685,None,,,,,,,0,8,8,25,2552.6500067000015,,,,,,,,,,,,,,,,,,,,,,,2555.2116849000013,2555.211775799995,,,,2552.637430399991,2552.638945066665,2552.6500067000015,2552.6500067000015,0.008194200010620989,0.02174850000301376,2554.837781800001,2555.207238499992,left,0,2.5449291999975685,None,None,,,,,,,,,,,,18_L2,001,2025-04-30_09h56.31.350,LangExperimentstress,2024.2.4,59.9221850509196,2025-04-30 09h56.48.484506 -0400,
sounds/34c_formar.wav,CVC,Unstressed,Match,past,num_2,0.0,0.2,0.876373676215277,0.992687651909722,1.14,1.26319767795138,101,30,31,32,33,34,0,0.676373676215277,0.792687651909722,0.94,1.06319767795138,34c_formar.wav,,c,,9,9,0,,,,,space,34,right,0,2.642386500010616,None,11.297548999995342,None,,,,,0,9,9,2,2555.231528000004,,,,,,,,,,,,,,,,,,,,,,,2557.895164100002,2569.207499600001,,,,2555.2184904000023,2555.2214668666606,2555.231528000004,2555.231528000004,0.006737299991073087,0.02090219999081455,2557.47211789999,2557.8907002999913,right,0,2.642386500010616,None,space,2557.9048374999984,2557.9048374999984,11.297548999995342,None,,,,,,,,18_L2,001,2025-04-30_09h56.31.350,LangExperimentstress,2024.2.4,59.9221850509196,2025-04-30 09h56.48.484506 -0400,
sounds/20c_cubrir.wav,CVC,Unstressed,Match,past,num_2,0.0,0.2,0.980138641742621,1.01,1.192436112212021,1.28412143493692,101,30,31,32,33,34,0,0.780138641742621,0.81,0.992436112212021,1.08412143493692,20c_cubrir.wav,,c,,10,10,0,,,,,None,20,right,0,2.3538544999901205,None,,,,,,,0,10,10,31,2569.225199099994,,,,,,,,,,,,,,,,,,,,,,,2571.595175900002,2571.5952633999987,,,,2569.214306499998,2569.2217163666687,2569.225199099994,2569.225199099994,0.0067811999906552956,0.01876149998861365,2571.371427899998,2571.5907191000006,right,0,2.3538544999901205,None,None,,,,,,,,,,,,18_L2,001,2025-04-30_09h56.31.350,LangExperimentstress,2024.2.4,59.9221850509196,2025-04-30 09h56.48.484506 -0400,
sounds/26a_bajar.wav,CVC,Stressed,Match,present,num_1,0.0,0.2,0.77,0.8999999999999999,1.03,1.171181705729166,101,10,11,12,13,14,0,0.57,0.7,0.83,0.971181705729166,26a_bajar.wav,,a,,11,11,0,,,,,None,26,left,0,2.474795500005712,None,,,,,,,0,11,11,13,2571.6154559999995,,,,,,,,,,,,,,,,,,,,,,,2574.111231899995,2574.1113239999977,,,,2571.6036501999915,2571.6048687666666,2571.6154559999995,2571.6154559999995,0.00843699999677483,0.021376999997301027,2573.6878763999994,2574.1070493000007,left,0,2.474795500005712,None,None,,,,,,,,,,,,18_L2,001,2025-04-30_09h56.31.350,LangExperimentstress,2024.2.4,59.9221850509196,2025-04-30 09h56.48.484506 -0400,
sounds/08d_filtrar.wav,CVC,Stressed,Mismatch,past,num_2,0.0,0.2,0.7526856695589441,0.87808115762362,1.118901843962886,1.172598812485867,101,40,41,42,43,44,0,0.552685669558944,0.67808115762362,0.918901843962886,0.972598812485867,08d_filtrar.wav,,d,,12,12,0,,,,,None,8,right,0,2.408584200005862,None,,,,,,,0,12,12,15,2574.1297537999926,,,,,,,,,,,,,,,,,,,,,,,2576.543655100002,2576.5437181000016,,,,2574.1178461999953,2574.1211642666644,2574.1297537999926,2574.1297537999926,0.006546899996465072,0.01961259999370668,2575.88868009999,2576.5406186000037,right,0,2.408584200005862,None,None,,,,,,,,,,,,18_L2,001,2025-04-30_09h56.31.350,LangExperimentstress,2024.2.4,59.9221850509196,2025-04-30 09h56.48.484506 -0400,
sounds/22d_dejar.wav,CVC,Stressed,Mismatch,past,num_2,0.0,0.2,0.8500000000000001,1.02,1.152543366608796,1.28794346788194,101,40,41,42,43,44,0,0.65,0.82,0.952543366608796,1.08794346788194,22d_dejar.wav,,d,,13,13,0,,,,,None,22,right,0,2.770484900000156,None,,,,,,,0,13,13,14,2576.5600084000034,,,,,,,,,,,,,,,,,,,,,,,2579.340641799994,2579.3406768999994,,,,2576.549905299995,2576.554602766661,2576.5600084000034,2576.5600084000034,0.00621540000429377,0.017335199998342432,2578.6045659999945,2579.338115999999,right,0,2.770484900000156,None,None,,,,,,,,,,,,18_L2,001,2025-04-30_09h56.31.350,LangExperimentstress,2024.2.4,59.9221850509196,2025-04-30 09h56.48.484506 -0400,
sounds/35b_secar.wav,CVC,Unstressed,Mismatch,present,num_1,0.0,0.2,0.8990044921875,1.025708658854166,1.179689416956018,1.20652606336805,101,20,21,22,23,24,0,0.6990044921875,0.825708658854166,0.979689416956018,1.00652606336805,35b_secar.wav,,b,,14,14,0,,,,,None,35,left,0,2.6886228999937885,None,,,,,,,0,14,14,5,2579.354517400003,,,,,,,,,,,,,,,,,,,,,,,2582.061737199998,2582.061831500003,,,,2579.34401239999,2579.3535925666697,2579.354517400003,2579.354517400003,0.003352999992785044,0.01436200000171084,2581.504872099991,2582.0575872999907,left,0,2.6886228999937885,None,None,,,,,,,,,,,,18_L2,001,2025-04-30_09h56.31.350,LangExperimentstress,2024.2.4,59.9221850509196,2025-04-30 09h56.48.484506 -0400,
sounds/21a_mezclar.wav,CVC,Stressed,Match,present,num_1,0.0,0.2,0.78,0.9121902777777772,1.20214212962962,1.27,101,10,11,12,13,14,0,0.58,0.712190277777777,1.00214212962962,1.07,21a_mezclar.wav,,a,,15,15,0,,,,,None,21,left,0,2.6981782000075327,None,,,,,,,0,15,15,27,2582.0811586999916,,,,,,,,,,,,,,,,,,,,,,,2584.794724499996,2584.794809500003,,,,2582.068959700002,2582.071645366658,2582.0811586999916,2582.0811586999916,0.007152300007874146,0.02039800000784453,2584.1045419,2584.7904108999937,left,0,2.6981782000075327,None,None,,,,,,,,,,,,18_L2,001,2025-04-30_09h56.31.350,LangExperimentstress,2024.2.4,59.9221850509196,2025-04-30 09h56.48.484506 -0400,
sounds/36c_bordar.wav,CVC,Unstressed,Match,past,num_2,0.0,0.2,1.0,1.078468243634259,1.3288624855324,1.3414992042824,101,30,31,32,33,34,0,0.8,0.878468243634259,1.1288624855324,1.1414992042824,36c_bordar.wav,,c,,16,16,0,,,,,None,36,right,0,2.554889799997909,None,,,,,,,0,16,16,1,2584.815319599991,,,,,,,,,,,,,,,,,,,,,,,2587.3782404999947,2587.378331,,,,2584.802085599993,2584.804469366664,2584.815319599991,2584.815319599991,0.007343200006289408,0.021554700011620298,2587.0879107999936,2587.374060599992,right,0,2.554889799997909,None,None,,,,,,,,,,,,18_L2,001,2025-04-30_09h56.31.350,LangExperimentstress,2024.2.4,59.9221850509196,2025-04-30 09h56.48.484506 -0400,
sounds/40c_gastar.wav,CVC,Unstressed,Match,past,num_2,0.0,0.2,0.8300000000000001,0.8400000000000001,1.163436328125,1.183149609375,101,30,31,32,33,34,0,0.63,0.64,0.963436328125,0.983149609375,40c_gastar.wav,,c,,17,17,0,,,,,None,40,right,0,2.6846451000019442,None,,,,,,,0,17,17,0,2587.3974439000012,,,,,,,,,,,,,,,,,,,,,,,2590.095412900002,2590.0955022999988,,,,2587.3866951999953,2587.388055466658,2587.3974439000012,2587.3974439000012,0.008460499986540526,0.02020529999572318,2589.521165500002,2590.091384799991,right,0,2.6846451000019442,None,None,,,,,,,,,,,,18_L2,001,2025-04-30_09h56.31.350,LangExperimentstress,2024.2.4,59.9221850509196,2025-04-30 09h56.48.484506 -0400,
sounds/23a_tomar.wav,CVC,Stressed,Match,present,num_1,0.0,0.2,0.9453179615162032,0.95,1.08,1.158644495081018,101,10,11,12,13,14,0,0.745317961516203,0.75,0.88,0.958644495081018,23a_tomar.wav,,a,,18,18,0,,,,,None,23,left,0,2.201072000010754,None,,,,,,,0,18,18,39,2590.1135768999957,,,,,,,,,,,,,,,,,,,,,,,2592.3271012999903,2592.3272055999987,,,,2590.1029034999956,2590.1052826666605,2590.1135768999957,2590.1135768999957,0.007647099992027506,0.019043399996007793,2592.021327399998,2592.3236293999944,left,0,2.201072000010754,None,None,,,,,,,,,,,,18_L2,001,2025-04-30_09h56.31.350,LangExperimentstress,2024.2.4,59.9221850509196,2025-04-30 09h56.48.484506 -0400,
sounds/06d_soplar.wav,CVC,Stressed,Mismatch,past,num_2,0.0,0.2,0.761291666666666,0.8899999999999999,1.102139687590422,1.166665581687644,101,40,41,42,43,44,0,0.561291666666666,0.69,0.902139687590422,0.966665581687644,06d_soplar.wav,,d,,19,19,0,,,,,space,6,right,0,2.250726999991457,None,10.48476859999937,None,,,,,0,19,19,16,2592.344149700002,,,,,,,,,,,,,,,,,,,,,,,2594.611181699991,2605.124216700002,,,,2592.3321436999977,2592.3380983666616,2592.344149700002,2592.344149700002,0.004949499998474494,0.017810899997130036,2594.2211248999956,2594.6070934000018,right,0,2.250726999991457,None,space,2594.621557599996,2594.621557599996,10.48476859999937,None,,,,,,,,18_L2,001,2025-04-30_09h56.31.350,LangExperimentstress,2024.2.4,59.9221850509196,2025-04-30 09h56.48.484506 -0400,
sounds/01d_salvar.wav,CVC,Stressed,Mismatch,past,num_2,0.0,0.2,0.8500000000000001,0.996069502314814,1.23,1.29,101,40,41,42,43,44,0,0.65,0.796069502314814,1.03,1.09,01d_salvar.wav,,d,,20,20,0,,,,,None,1,right,0,2.120082800000091,None,,,,,,,0,20,20,37,2605.138638999997,,,,,,,,,,,,,,,,,,,,,,,2607.277930700002,2607.278012499999,,,,2605.1271538,2605.138272066663,2605.138638999997,2605.138638999997,0.0028784999885829166,0.015098499992745928,2607.204764299997,2607.273872299993,right,0,2.120082800000091,None,None,,,,,,,,,,,,18_L2,001,2025-04-30_09h56.31.350,LangExperimentstress,2024.2.4,59.9221850509196,2025-04-30 09h56.48.484506 -0400,
sounds/18b_cumplir.wav,CVC,Unstressed,Mismatch,present,num_1,0.0,0.2,1.2408027271412,1.25568597366898,1.46256310040509,1.54144430700231,101,20,21,22,23,24,0,1.0408027271412,1.05568597366898,1.26256310040509,1.34144430700231,18b_cumplir.wav,,b,,21,21,0,,,,,None,18,left,0,5.81186840000737,None,,,,,,,0,21,21,29,2607.294532,,,,,,,,,,,,,,,,,,,,,,,2613.1278268000024,2613.1279085999995,,,,2607.283941300004,2607.2880031666614,2607.294532,2607.294532,0.005940899995039217,0.017392499998095445,2609.488115100001,2613.123585399997,left,0,5.81186840000737,None,None,,,,,,,,,,,,18_L2,001,2025-04-30_09h56.31.350,LangExperimentstress,2024.2.4,59.9221850509196,2025-04-30 09h56.48.484506 -0400,
sounds/03b_limpiar.wav,CVC,Unstressed,Mismatch,present,num_1,0.0,0.2,0.8500000000000001,0.932367621527777,1.26878515625,1.35808463541666,101,20,21,22,23,24,0,0.65,0.732367621527777,1.06878515625,1.15808463541666,03b_limpiar.wav,,b,,22,22,0,,,,,None,3,right,0,3.1607484000123804,None,,,,,,,0,22,22,4,2613.146808499994,,,,,,,,,,,,,,,,,,,,,,,2616.327412999992,2616.327485499991,,,,2613.1349991000025,2613.137792666665,2613.146808499994,2613.146808499994,0.007114799998817034,0.01997300000221003,2615.28773299999,2616.32377789999,right,0,3.1607484000123804,None,None,,,,,,,,,,,,18_L2,001,2025-04-30_09h56.31.350,LangExperimentstress,2024.2.4,59.9221850509196,2025-04-30 09h56.48.484506 -0400,
sounds/25b_ganar.wav,CVC,Unstressed,Mismatch,present,num_1,0.0,0.2,1.152097938368055,1.15990068760488,1.28904165650454,1.37272500435153,101,20,21,22,23,24,0,0.952097938368055,0.95990068760488,1.08904165650454,1.17272500435153,25b_ganar.wav,,b,,23,23,0,,,,,None,25,left,0,2.59353949999786,None,,,,,,,0,23,23,8,2616.3458433999913,,,,,,,,,,,,,,,,,,,,,,,2618.9613223999913,2618.961412599994,,,,2616.3343012999976,2616.337941866663,2616.3458433999913,2616.3458433999913,0.006838400004198775,0.019339400008902885,2618.6880878999946,2618.9571448999923,left,0,2.59353949999786,None,None,,,,,,,,,,,,18_L2,001,2025-04-30_09h56.31.350,LangExperimentstress,2024.2.4,59.9221850509196,2025-04-30 09h56.48.484506 -0400,
sounds/14b_borrar.wav,CVC,Unstressed,Mismatch,present,num_1,0.0,0.2,0.72,0.770187630208333,0.851961241319444,0.964399956597222,101,20,21,22,23,24,0,0.52,0.570187630208333,0.651961241319444,0.764399956597222,14b_borrar.wav,,b,,24,24,0,,,,,None,14,left,0,2.7496568000060506,None,,,,,,,0,24,24,20,2618.9815948999894,,,,,,,,,,,,,,,,,,,,,,,2621.7450919999974,2621.7451775999943,,,,2618.9695866999973,2618.9713203666656,2618.9815948999894,2618.9815948999894,0.008285600008093752,0.02135150000685826,2620.938878000001,2621.7407033999916,left,0,2.7496568000060506,None,None,,,,,,,,,,,,18_L2,001,2025-04-30_09h56.31.350,LangExperimentstress,2024.2.4,59.9221850509196,2025-04-30 09h56.48.484506 -0400,
sounds/11a_pegar.wav,CVC,Stressed,Match,present,num_1,0.0,0.2,0.8182808977343741,0.831294515585661,0.98,1.012063288108519,101,10,11,12,13,14,0,0.618280897734374,0.631294515585661,0.78,0.812063288108519,11a_pegar.wav,,a,,25,25,0,,,,,None,11,left,0,2.565636799990898,None,,,,,,,0,25,25,3,2621.7653129999962,,,,,,,,,,,,,,,,,,,,,,,2624.344316399991,2624.3443979000003,,,,2621.7526597999968,2621.7547401666566,2621.7653129999962,2621.7653129999962,0.00757250000606291,0.02135429999907501,2623.721658900002,2624.3403485000017,left,0,2.565636799990898,None,None,,,,,,,,,,,,18_L2,001,2025-04-30_09h56.31.350,LangExperimentstress,2024.2.4,59.9221850509196,2025-04-30 09h56.48.484506 -0400,
sounds/30a_fundar.wav,CVC,Stressed,Match,present,num_1,0.0,0.2,0.77,0.91,1.112685546875,1.12,101,10,11,12,13,14,0,0.57,0.71,0.912685546875,0.92,30a_fundar.wav,,a,,26,26,0,,,,,None,30,left,0,2.9773921000014525,None,,,,,,,0,26,26,36,2624.3609322999982,,,,,,,,,,,,,,,,,,,,,,,2627.3612813999935,2627.3613621999975,,,,2624.350762599992,2624.354676066669,2624.3609322999982,2624.3609322999982,0.006403999999747612,0.01734720000240486,2626.5210945,2627.357116600004,left,0,2.9773921000014525,None,None,,,,,,,,,,,,18_L2,001,2025-04-30_09h56.31.350,LangExperimentstress,2024.2.4,59.9221850509196,2025-04-30 09h56.48.484506 -0400,
sounds/10d_vender.wav,CVC,Stressed,Mismatch,past,num_2,0.0,0.2,0.832830209056713,0.8775468199411529,1.109501330306288,1.158928471023364,101,40,41,42,43,44,0,0.632830209056713,0.677546819941153,0.909501330306288,0.958928471023364,10d_vender.wav,,d,,27,27,0,,,,,None,10,right,0,2.2312449000019114,None,,,,,,,0,27,27,12,2627.3793698999943,,,,,,,,,,,,,,,,,,,,,,,2629.628356100002,2629.628442699992,,,,2627.367881099999,2627.3712623666693,2627.3793698999943,2627.3793698999943,0.0065442999912193045,0.019136200004140846,2629.2879595999984,2629.6242286999914,right,0,2.2312449000019114,None,None,,,,,,,,,,,,18_L2,001,2025-04-30_09h56.31.350,LangExperimentstress,2024.2.4,59.9221850509196,2025-04-30 09h56.48.484506 -0400,
sounds/05a_fumar.wav,CVC,Stressed,Match,present,num_1,0.0,0.2,1.15,1.36712555700231,1.48,1.56308830295138,101,10,11,12,13,14,0,0.95,1.16712555700231,1.28,1.36308830295138,05a_fumar.wav,,a,,28,28,0,,,,,None,5,left,0,2.7141759999940405,None,,,,,,,0,28,28,38,2629.6492103999917,,,,,,,,,,,,,,,,,,,,,,,2632.3780541000015,2632.3781374999962,,,,2629.6359531999915,2629.638115366663,2629.6492103999917,2629.6492103999917,0.007594900002004579,0.021910299998125993,2632.0212490999984,2632.3742182999995,left,0,2.7141759999940405,None,None,,,,,,,,,,,,18_L2,001,2025-04-30_09h56.31.350,LangExperimentstress,2024.2.4,59.9221850509196,2025-04-30 09h56.48.484506 -0400,
sounds/15b_partir.wav,CVC,Unstressed,Mismatch,present,num_1,0.0,0.2,0.826865400752314,0.842973894883327,1.1042888772729471,1.120815958498066,101,20,21,22,23,24,0,0.626865400752314,0.642973894883327,0.904288877272947,0.920815958498066,15b_partir.wav,,b,,29,29,0,,,,,space,15,right,0,3.1997058000124525,None,10.709899399997084,None,,,,,0,29,29,22,2632.394339599996,,,,,,,,,,,,,,,,,,,,,,,2635.611120799993,2646.34068519999,,,,2632.383776399991,2632.3882520666707,2632.394339599996,2632.394339599996,0.005645600002026185,0.017105700011597946,2634.4711072999926,2635.607608399994,right,0,3.1997058000124525,None,space,2635.6211537999916,2635.6211537999916,10.709899399997084,None,,,,,,,,18_L2,001,2025-04-30_09h56.31.350,LangExperimentstress,2024.2.4,59.9221850509196,2025-04-30 09h56.48.484506 -0400,
sounds/29a_pesar.wav,CVC,Stressed,Match,present,num_1,0.0,0.2,0.91328417532552,0.925531286730473,1.03,1.150619522602117,101,10,11,12,13,14,0,0.71328417532552,0.725531286730473,0.83,0.950619522602117,29a_pesar.wav,,a,,30,30,0,,,,,None,29,left,0,2.338896000001114,None,,,,,,,0,30,30,32,2646.3603050999955,,,,,,,,,,,,,,,,,,,,,,,2648.7113938999973,2648.7114841000002,,,,2646.348506399998,2646.354914166663,2646.3603050999955,2646.3603050999955,0.007813699994585477,0.020887999999104068,2648.2712475000008,2648.707236699993,left,0,2.338896000001114,None,None,,,,,,,,,,,,18_L2,001,2025-04-30_09h56.31.350,LangExperimentstress,2024.2.4,59.9221850509196,2025-04-30 09h56.48.484506 -0400,
sounds/28d_parar.wav,CVC,Stressed,Mismatch,past,num_2,0.0,0.2,0.8458860026041659,0.862313736979166,1.018194683159722,1.032797113715277,101,40,41,42,43,44,0,0.645886002604166,0.662313736979166,0.818194683159722,0.832797113715277,28d_parar.wav,,d,,31,31,0,,,,,None,28,right,0,2.199054500000784,None,,,,,,,0,31,31,18,2648.7320913000003,,,,,,,,,,,,,,,,,,,,,,,2650.9444475999917,2650.9445410999906,,,,2648.719871699999,2648.7213210666564,2648.7320913000003,2648.7320913000003,0.008473599998978898,0.021671700000297278,2650.637676700004,2650.941175300002,right,0,2.199054500000784,None,None,,,,,,,,,,,,18_L2,001,2025-04-30_09h56.31.350,LangExperimentstress,2024.2.4,59.9221850509196,2025-04-30 09h56.48.484506 -0400,
sounds/32d_pulsar.wav,CVC,Stressed,Mismatch,past,num_2,0.0,0.2,0.796440212673611,0.8294641710069439,0.99,1.097783832465277,101,40,41,42,43,44,0,0.596440212673611,0.629464171006944,0.79,0.897783832465277,32d_pulsar.wav,,d,,32,32,0,,,,,None,32,right,0,2.406592700004694,None,,,,,,,0,32,32,24,2650.963990199991,,,,,,,,,,,,,,,,,,,,,,,2653.378608500003,2653.3786943000014,,,,2650.951947099995,2650.9547859666677,2650.963990199991,2650.963990199991,0.007441499998094514,0.02055859999381937,2652.7707291999977,2653.3742586000008,right,0,2.406592700004694,None,None,,,,,,,,,,,,18_L2,001,2025-04-30_09h56.31.350,LangExperimentstress,2024.2.4,59.9221850509196,2025-04-30 09h56.48.484506 -0400,
sounds/09c_cargar.wav,CVC,Unstressed,Match,past,num_2,0.0,0.2,0.81286744068287,0.8382251229745361,1.032634020543981,1.090594437210648,101,30,31,32,33,34,0,0.61286744068287,0.638225122974536,0.832634020543981,0.890594437210648,09c_cargar.wav,,c,,33,33,0,,,,,None,9,right,0,2.900255200001993,None,,,,,,,0,33,33,28,2653.3983023000037,,,,,,,,,,,,,,,,,,,,,,,2656.3109637000016,2656.311046499992,,,,2653.3871711999964,2653.38823156666,2653.3983023000037,2653.3983023000037,0.008546600001864135,0.020766399989952333,2655.33786639999,2656.3068504999974,right,0,2.900255200001993,None,None,,,,,,,,,,,,18_L2,001,2025-04-30_09h56.31.350,LangExperimentstress,2024.2.4,59.9221850509196,2025-04-30 09h56.48.484506 -0400,
sounds/16a_llevar.wav,CVC,Stressed,Match,present,num_1,0.0,0.2,0.929084516317274,0.964936524692279,1.08,1.131864014418682,101,10,11,12,13,14,0,0.729084516317274,0.764936524692279,0.88,0.931864014418682,16a_llevar.wav,,a,,34,34,0,,,,,None,16,left,0,2.2157529999967664,None,,,,,,,0,34,34,21,2656.3307759000018,,,,,,,,,,,,,,,,,,,,,,,2658.5619702999975,2658.5620572999906,,,,2656.318361700003,2656.3212117666594,2656.3307759000018,2656.3307759000018,0.007345299993176013,0.020930499988025986,2658.2379908000003,2658.558065099991,left,0,2.2157529999967664,None,None,,,,,,,,,,,,18_L2,001,2025-04-30_09h56.31.350,LangExperimentstress,2024.2.4,59.9221850509196,2025-04-30 09h56.48.484506 -0400,
sounds/39b_manchar.wav,CVC,Unstressed,Mismatch,present,num_1,0.0,0.2,0.81,0.91203755787037,1.140584317129629,1.2139708912037,101,20,21,22,23,24,0,0.61,0.71203755787037,0.940584317129629,1.0139708912037,39b_manchar.wav,,b,,35,35,0,,,,,None,39,left,0,2.717039700000896,None,,,,,,,0,35,35,7,2658.5813474000024,,,,,,,,,,,,,,,,,,,,,,,2661.3115830000024,2661.311670700001,,,,2658.5690630000026,2658.571386266664,2658.5813474000024,2658.5813474000024,0.007119300003978424,0.020236800002749078,2660.837888599999,2661.3072407,left,0,2.717039700000896,None,None,,,,,,,,,,,,18_L2,001,2025-04-30_09h56.31.350,LangExperimentstress,2024.2.4,59.9221850509196,2025-04-30 09h56.48.484506 -0400,
sounds/38b_pagar.wav,CVC,Unstressed,Mismatch,present,num_1,0.0,0.2,1.166737304687499,1.185271158854166,1.29521061197916,1.4055712890624898,101,20,21,22,23,24,0,0.966737304687499,0.985271158854166,1.09521061197916,1.20557128906249,38b_pagar.wav,,b,,36,36,0,,,,,None,38,left,0,2.7845720000041183,None,,,,,,,0,36,36,17,2661.3308935999958,,,,,,,,,,,,,,,,,,,,,,,2664.128335100002,2664.1284180999937,,,,2661.3201049999916,2661.32126856667,2661.3308935999958,2661.3308935999958,0.008478899995679967,0.02024149999488145,2663.5884339999902,2664.1240030999907,left,0,2.7845720000041183,None,None,,,,,,,,,,,,18_L2,001,2025-04-30_09h56.31.350,LangExperimentstress,2024.2.4,59.9221850509196,2025-04-30 09h56.48.484506 -0400,
sounds/31d_tocar.wav,CVC,Stressed,Mismatch,past,num_2,0.0,0.2,0.8493931756807,0.8650112062639721,1.006860547391531,1.049162047334928,101,40,41,42,43,44,0,0.6493931756807,0.665011206263972,0.806860547391531,0.849162047334928,31d_tocar.wav,,d,,37,37,0,,,,,None,31,right,0,2.0935093000007328,None,,,,,,,0,37,37,30,2664.14893499999,,,,,,,,,,,,,,,,,,,,,,,2666.2613333999907,2666.2614501999924,,,,2664.1360112999973,2664.1381076666626,2664.14893499999,2664.14893499999,0.007680399998207577,0.02166399999987334,2666.055126499996,2666.2574189000006,right,0,2.0935093000007328,None,None,,,,,,,,,,,,18_L2,001,2025-04-30_09h56.31.350,LangExperimentstress,2024.2.4,59.9221850509196,2025-04-30 09h56.48.484506 -0400,
sounds/24d_mirar.wav,CVC,Stressed,Mismatch,past,num_2,0.0,0.2,0.71,0.8119545789930551,0.9389863642939812,0.9746780743634248,101,40,41,42,43,44,0,0.51,0.611954578993055,0.738986364293981,0.774678074363425,24d_mirar.wav,,d,,38,38,0,,,,,None,24,right,0,2.360597599996254,None,,,,,,,0,38,38,11,2666.2815087999916,,,,,,,,,,,,,,,,,,,,,,,2668.6598792000004,2668.659998000003,,,,2666.2687578999903,2666.271148766657,2666.2815087999916,2666.2815087999916,0.007352900007390417,0.021208200007095,2667.9880623999925,2668.656904599993,right,0,2.360597599996254,None,None,,,,,,,,,,,,18_L2,001,2025-04-30_09h56.31.350,LangExperimentstress,2024.2.4,59.9221850509196,2025-04-30 09h56.48.484506 -0400,
sounds/04c_plantar.wav,CVC,Unstressed,Match,past,num_2,0.0,0.2,0.862877574458911,0.9343518689653568,1.20493812332404,1.21897569287037,101,30,31,32,33,34,0,0.662877574458911,0.734351868965357,1.00493812332404,1.01897569287037,04c_plantar.wav,,c,,39,39,0,,,,,None,4,right,0,2.439533400000073,None,,,,,,,0,39,39,9,2668.6755394999927,,,,,,,,,,,,,,,,,,,,,,,2671.1282111000037,2671.1283015999943,,,,2668.665592199992,2668.6714682666684,2668.6755394999927,2668.6755394999927,0.005608399995253421,0.016418499988503754,2670.7212220999936,2671.1240091999935,right,0,2.439533400000073,None,None,,,,,,,,,,,,18_L2,001,2025-04-30_09h56.31.350,LangExperimentstress,2024.2.4,59.9221850509196,2025-04-30 09h56.48.484506 -0400,
,,,,,,,,,,,,,,,,,,,,,,,,,,,,,,,,,,,,,,,,,,,,,,,,,,,,,,,,,,,,,,,,,,,,,,,,,,,,,,,,,,,,,,,,,,,,,,,2671.1285395000014,2671.1380367999955,2671.1380367999955,2731.7905299999984,space,60.6407779000001,None,18_L2,001,2025-04-30_09h56.31.350,LangExperimentstress,2024.2.4,59.9221850509196,2025-04-30 09h56.48.484506 -0400,
