sounds,syll,stress_unstress,suffix,present_past,corrAns,trigger_item,trigger_senonset,trigger_verbsonset,trigger_1_F0,trigger_suffix,trigger_2_F0,ID_item,ID_senonset,ID_verbonset,ID_1_F0,ID_suffix,ID_2_F0,ms_senonset,ms_verbonset,ms_1_F0,ms_suffix,ms_2_F0,file_name,sentence,cond,combo,thisN,thisTrialN,thisRepN,key_resp_4.keys,key_resp_4.corr,key_resp_4.rt,key_resp_4.duration,key_resp_5.keys,item_id,key_resp_2.keys,key_resp_2.corr,key_resp_2.rt,key_resp_2.duration,key_resp_5.rt,key_resp_5.duration,practice_trials.thisRepN,practice_trials.thisTrialN,practice_trials.thisN,practice_trials.thisIndex,experimental_trials.thisRepN,experimental_trials.thisTrialN,experimental_trials.thisN,experimental_trials.thisIndex,thisRow.t,notes,instructions.started,instr.started,key_resp.started,instructions.stopped,key_resp.keys,key_resp.rt,key_resp.duration,init_practice.started,init_practice.stopped,test_practice.started,test_sound_2.started,key_resp_4.started,polygon.started,serialPort_item_2.started,serialPort_item_2.stopped,test_sound_2.stopped,test_practice.stopped,practice_trials.key_resp_4.keys,practice_trials.key_resp_4.corr,practice_trials.key_resp_4.rt,practice_trials.key_resp_4.duration,takeabreak.started,takeabreak.stopped,practice_trials.key_resp_5.keys,init_trials.started,init_trials.stopped,test.started,test_sound.started,key_resp_2.started,polygon_2.started,serialPort_item.started,serialPort_item.stopped,test_sound.stopped,test.stopped,experimental_trials.key_resp_2.keys,experimental_trials.key_resp_2.corr,experimental_trials.key_resp_2.rt,experimental_trials.key_resp_2.duration,experimental_trials.key_resp_5.keys,text_3.started,key_resp_5.started,experimental_trials.key_resp_5.rt,experimental_trials.key_resp_5.duration,Thanks.started,text_2.started,key_resp_thanks.started,Thanks.stopped,key_resp_thanks.keys,key_resp_thanks.rt,key_resp_thanks.duration,participant,session,date,expName,psychopyVersion,frameRate,expStart,
,,,,,,,,,,,,,,,,,,,,,,,,,,,,,,,,,,,,,,,,,,,,,,,,,,,,0.0027451999485492706,0.012866599950939417,0.012866599950939417,3798.0639625000767,space,3798.048646400217,None,,,,,,,,,,,,,,,,,,,,,,,,,,,,,,,,,,,,,,,,,,,,1_L2,001,2025-04-21_10h08.16.709,LangExperimentstress,2024.2.4,60.251126700440025,2025-04-21 10h09.25.827904 -0400,
,,,,,,,,,,,,,,,,,,,,,,,,,,,,,,,,,,,,,,,,,,,,,,,,,,,,,,,,,,,3798.064015300013,3798.06445960002,,,,,,,,,,,,,,,,,,,,,,,,,,,,,,,,,,,,,,,,,,1_L2,001,2025-04-21_10h08.16.709,LangExperimentstress,2024.2.4,60.251126700440025,2025-04-21 10h09.25.827904 -0400,
sounds/p1a_saltar.wav,CVC,Stressed,Match,present,num_1,0.0,0.205513,0.8629519999999999,0.984841,1.219715,1.27,101,10,11,12,13,14,0.005513,0.662952,0.784841,1.019715,1.07,p1a_saltar.wav,p1,a,p1a,0,0,0,right,0,3.730770899914205,None,None,,,,,,,,0,0,0,0,,,,,3798.0983072998933,,,,,,,,,,,3798.0862316000275,3798.095717933619,3798.0983072998933,3798.0983072998933,0.0218023001216352,0.03447509976103902,3800.345088500064,3801.8303859001026,right,0,3.730770899914205,None,3801.8318504001945,3801.831886400003,None,,,,,,,,,,,,,,,,,,,,,,,,,,,1_L2,001,2025-04-21_10h08.16.709,LangExperimentstress,2024.2.4,60.251126700440025,2025-04-21 10h09.25.827904 -0400,
sounds/p4d_cortar.wav,CVC,Stressed,Mismatch,past,num_2,0.0,0.205513,0.8629519999999999,0.984841,1.219715,1.27,101,40,41,42,43,44,0.005513,0.662952,0.784841,1.019715,1.07,p4d_cortar.wav,p4,d,p4d,1,1,0,right,0,3.213662900030613,None,None,,,,,,,,0,1,1,3,,,,,3801.8554727002047,,,,,,,,,,,3801.8467421000823,3801.8622162334004,3801.8554727002047,3801.8554727002047,0.014865500386804342,0.024043800309300423,3804.379213300068,3805.079888000153,right,0,3.213662900030613,None,3805.08110579988,3805.0811466001906,None,,,,,,,,,,,,,,,,,,,,,,,,,,,1_L2,001,2025-04-21_10h08.16.709,LangExperimentstress,2024.2.4,60.251126700440025,2025-04-21 10h09.25.827904 -0400,
sounds/p3c_saltar.wav,CVC,Unstressed,Match,past,num_2,0.0,0.205513,0.8629519999999999,0.984841,1.219715,1.27,101,30,31,32,33,34,0.005513,0.662952,0.784841,1.019715,1.07,p3c_saltar.wav,p3,c,p3c,2,2,0,right,0,2.4401930002495646,None,None,,,,,,,,0,2,2,2,,,,,3805.1016333000734,,,,,,,,,,,3805.0924292001873,3805.0953465668176,3805.1016333000734,3805.1016333000734,0.011306399945169687,0.02105350000783801,3807.178648999892,3807.547135700006,right,0,2.4401930002495646,None,3807.5483826999553,3807.5484195002355,None,,,,,,,,,,,,,,,,,,,,,,,,,,,1_L2,001,2025-04-21_10h08.16.709,LangExperimentstress,2024.2.4,60.251126700440025,2025-04-21 10h09.25.827904 -0400,
sounds/p2b_cortar.wav,CVC,Unstressed,Mismatch,present,num_1,0.0,0.205513,0.8629519999999999,0.984841,1.219715,1.27,101,20,21,22,23,24,0.005513,0.662952,0.784841,1.019715,1.07,p2b_cortar.wav,p2,b,p2b,3,3,0,right,0,2.930742199998349,None,None,,,,,,,,0,3,3,1,,,,,3807.5713034998626,,,,,,,,,,,3807.560134700034,3807.5624962668558,3807.5713034998626,3807.5713034998626,0.011914299800992012,0.02371099963784218,3809.8302103001624,3810.5167172001675,right,0,2.930742199998349,None,3810.5208463002928,3810.520944800228,None,,,,,,,,,,,,,,,,,,,,,,,,,,,1_L2,001,2025-04-21_10h08.16.709,LangExperimentstress,2024.2.4,60.251126700440025,2025-04-21 10h09.25.827904 -0400,
,,,,,,,,,,,,,,,,,,,,,,,,,,,,,,,,,,,,,,,,,,,,,,,,,,,,3810.5212309001945,3810.5302647002973,3810.5302647002973,3813.6834717001766,space,3.1393486000597477,None,,,,,,,,,,,,,,,,,,,,,,,,,,,,,,,,,,,,,,,,,,,,1_L2,001,2025-04-21_10h08.16.709,LangExperimentstress,2024.2.4,60.251126700440025,2025-04-21 10h09.25.827904 -0400,
,,,,,,,,,,,,,,,,,,,,,,,,,,,,,,,,,,,,,,,,,,,,,,,,,,,,,,,,,,,,,,,,,,,,,,,,,,,,3813.683575999923,3813.6848510000855,,,,,,,,,,,,,,,,,,,,,,,,,1_L2,001,2025-04-21_10h08.16.709,LangExperimentstress,2024.2.4,60.251126700440025,2025-04-21 10h09.25.827904 -0400,
sounds/06d_soplar.wav,CVC,Stressed,Mismatch,past,num_2,0.0,0.2,0.761291666666666,0.8899999999999999,1.102139687590422,1.166665581687644,101,40,41,42,43,44,0,0.561291666666666,0.69,0.902139687590422,0.966665581687644,06d_soplar.wav,,d,,0,0,0,,,,,None,6,left,0,5.434089499991387,None,,,,,,,0,0,0,16,3813.754917500075,,,,,,,,,,,,,,,,,,,,,,,3819.2003135001287,3819.2003477001563,,,,3813.7424973002635,3813.747308266598,3813.754917500075,3813.754917500075,0.05764599982649088,0.07103780005127192,3815.630594499875,3819.1977204000577,left,0,5.434089499991387,None,None,,,,,,,,,,,,1_L2,001,2025-04-21_10h08.16.709,LangExperimentstress,2024.2.4,60.251126700440025,2025-04-21 10h09.25.827904 -0400,
sounds/29a_pesar.wav,CVC,Stressed,Match,present,num_1,0.0,0.2,0.91328417532552,0.925531286730473,1.03,1.150619522602117,101,10,11,12,13,14,0,0.71328417532552,0.725531286730473,0.83,0.950619522602117,29a_pesar.wav,,a,,1,1,0,,,,,None,29,left,0,3.1983345998451114,None,,,,,,,0,1,1,32,3819.2241414003074,,,,,,,,,,,,,,,,,,,,,,,3822.4317171000876,3822.431753099896,,,,3819.21422370011,3819.229605133304,3819.2241414003074,3819.2241414003074,0.01390510005876422,0.02450399985536933,3821.146125700325,3822.4304133001715,left,0,3.1983345998451114,None,None,,,,,,,,,,,,1_L2,001,2025-04-21_10h08.16.709,LangExperimentstress,2024.2.4,60.251126700440025,2025-04-21 10h09.25.827904 -0400,
sounds/03b_limpiar.wav,CVC,Unstressed,Mismatch,present,num_1,0.0,0.2,0.8500000000000001,0.932367621527777,1.26878515625,1.35808463541666,101,20,21,22,23,24,0,0.65,0.732367621527777,1.06878515625,1.15808463541666,03b_limpiar.wav,,b,,2,2,0,,,,,None,3,right,0,2.4367333999834955,None,,,,,,,0,2,2,4,3822.4563210001215,,,,,,,,,,,,,,,,,,,,,,,3824.900460800156,3824.900497500319,,,,3822.444916400127,3822.4459264665534,3822.4563210001215,3822.4563210001215,0.01326859975233674,0.025395299773663282,3824.6131767001934,3824.8980423002504,right,0,2.4367333999834955,None,None,,,,,,,,,,,,1_L2,001,2025-04-21_10h08.16.709,LangExperimentstress,2024.2.4,60.251126700440025,2025-04-21 10h09.25.827904 -0400,
sounds/40c_gastar.wav,CVC,Unstressed,Match,past,num_2,0.0,0.2,0.8300000000000001,0.8400000000000001,1.163436328125,1.183149609375,101,30,31,32,33,34,0,0.63,0.64,0.963436328125,0.983149609375,40c_gastar.wav,,c,,3,3,0,,,,,None,40,right,0,5.170691099949181,None,,,,,,,0,3,3,0,3824.9244846999645,,,,,,,,,,,,,,,,,,,,,,,3830.1008783001453,3830.100910600275,,,,3824.9151075002737,3824.92989113334,3824.9244846999645,3824.9244846999645,0.01462800009176135,0.024732999969273806,3827.047267800197,3830.0980394999497,right,0,5.170691099949181,None,None,,,,,,,,,,,,1_L2,001,2025-04-21_10h08.16.709,LangExperimentstress,2024.2.4,60.251126700440025,2025-04-21 10h09.25.827904 -0400,
sounds/32d_pulsar.wav,CVC,Stressed,Mismatch,past,num_2,0.0,0.2,0.796440212673611,0.8294641710069439,0.99,1.097783832465277,101,40,41,42,43,44,0,0.596440212673611,0.629464171006944,0.79,0.897783832465277,32d_pulsar.wav,,d,,4,4,0,,,,,None,32,right,0,3.002576899714768,None,,,,,,,0,4,4,24,3830.124299299903,,,,,,,,,,,,,,,,,,,,,,,3833.132357100025,3833.1323915999383,,,,3830.114716100041,3830.1300623334328,3830.124299299903,3830.124299299903,0.01382480002939701,0.02414740016683936,3831.946499600075,3833.130747000221,right,0,3.002576899714768,None,None,,,,,,,,,,,,1_L2,001,2025-04-21_10h08.16.709,LangExperimentstress,2024.2.4,60.251126700440025,2025-04-21 10h09.25.827904 -0400,
sounds/26a_bajar.wav,CVC,Stressed,Match,present,num_1,0.0,0.2,0.77,0.8999999999999999,1.03,1.171181705729166,101,10,11,12,13,14,0,0.57,0.7,0.83,0.971181705729166,26a_bajar.wav,,a,,5,5,0,,,,,None,26,right,0,2.406090300064534,None,,,,,,,0,5,5,13,3833.1522805001587,,,,,,,,,,,,,,,,,,,,,,,3835.566097000148,3835.566137799993,,,,3833.142609400209,3833.1462642667507,3833.1522805001587,3833.1522805001587,0.010233600158244371,0.020560699980705976,3835.2295488999225,3835.5645506000146,right,0,2.406090300064534,None,None,,,,,,,,,,,,1_L2,001,2025-04-21_10h08.16.709,LangExperimentstress,2024.2.4,60.251126700440025,2025-04-21 10h09.25.827904 -0400,
sounds/28d_parar.wav,CVC,Stressed,Mismatch,past,num_2,0.0,0.2,0.8458860026041659,0.862313736979166,1.018194683159722,1.032797113715277,101,40,41,42,43,44,0,0.645886002604166,0.662313736979166,0.818194683159722,0.832797113715277,28d_parar.wav,,d,,6,6,0,,,,,None,28,left,0,2.1704318998381495,None,,,,,,,0,6,6,18,3835.5881163002923,,,,,,,,,,,,,,,,,,,,,,,3837.766667000018,3837.7666977001354,,,,3835.5768583999015,3835.579323966584,3835.5881163002923,3835.5881163002923,0.010779500007629395,0.02262190030887723,3837.5132577000186,3837.7647215002216,left,0,2.1704318998381495,None,None,,,,,,,,,,,,1_L2,001,2025-04-21_10h08.16.709,LangExperimentstress,2024.2.4,60.251126700440025,2025-04-21 10h09.25.827904 -0400,
sounds/34c_formar.wav,CVC,Unstressed,Match,past,num_2,0.0,0.2,0.876373676215277,0.992687651909722,1.14,1.26319767795138,101,30,31,32,33,34,0,0.676373676215277,0.792687651909722,0.94,1.06319767795138,34c_formar.wav,,c,,7,7,0,,,,,None,34,right,0,4.519698300398886,None,,,,,,,0,7,7,2,3837.7898581000045,,,,,,,,,,,,,,,,,,,,,,,3842.3160916999914,3842.3161276001483,,,,3837.7800674000755,3837.7965421333292,3837.7898581000045,3837.7898581000045,0.013397200033068657,0.023896800354123116,3840.030068800319,3842.3144240998663,right,0,4.519698300398886,None,None,,,,,,,,,,,,1_L2,001,2025-04-21_10h08.16.709,LangExperimentstress,2024.2.4,60.251126700440025,2025-04-21 10h09.25.827904 -0400,
sounds/09c_cargar.wav,CVC,Unstressed,Match,past,num_2,0.0,0.2,0.81286744068287,0.8382251229745361,1.032634020543981,1.090594437210648,101,30,31,32,33,34,0,0.61286744068287,0.638225122974536,0.832634020543981,0.890594437210648,09c_cargar.wav,,c,,8,8,0,,,,,None,9,left,0,5.940067999996245,None,,,,,,,0,8,8,28,3842.3381193000823,,,,,,,,,,,,,,,,,,,,,,,3848.283990799915,3848.284028300084,,,,3842.327833800111,3842.329908666729,3842.3381193000823,3842.3381193000823,0.011887399945408106,0.02258020034059882,3844.279776399955,3848.2816980001517,left,0,5.940067999996245,None,None,,,,,,,,,,,,1_L2,001,2025-04-21_10h08.16.709,LangExperimentstress,2024.2.4,60.251126700440025,2025-04-21 10h09.25.827904 -0400,
sounds/04c_plantar.wav,CVC,Unstressed,Match,past,num_2,0.0,0.2,0.862877574458911,0.9343518689653568,1.20493812332404,1.21897569287037,101,30,31,32,33,34,0,0.662877574458911,0.734351868965357,1.00493812332404,1.01897569287037,04c_plantar.wav,,c,,9,9,0,,,,,space,4,right,0,2.387165099848062,None,7.860231599770486,None,,,,,0,9,9,9,3848.3076682002284,,,,,,,,,,,,,,,,,,,,,,,3850.699470499996,3858.581241699867,,,,3848.296978000086,3848.3137312332483,3848.3076682002284,3848.3076682002284,0.01297320006415248,0.024358900263905525,3850.364134500269,3850.6981322001666,right,0,2.387165099848062,None,space,3850.713075600099,3850.713075600099,7.860231599770486,None,,,,,,,,1_L2,001,2025-04-21_10h08.16.709,LangExperimentstress,2024.2.4,60.251126700440025,2025-04-21 10h09.25.827904 -0400,
sounds/35b_secar.wav,CVC,Unstressed,Mismatch,present,num_1,0.0,0.2,0.8990044921875,1.025708658854166,1.179689416956018,1.20652606336805,101,20,21,22,23,24,0,0.6990044921875,0.825708658854166,0.979689416956018,1.00652606336805,35b_secar.wav,,b,,10,10,0,,,,,None,35,right,0,3.298618200235069,None,,,,,,,0,10,10,5,3858.603338500019,,,,,,,,,,,,,,,,,,,,,,,3861.9217965998687,3861.921894100029,,,,3858.5923934001476,3858.596787266961,3858.603338500019,3858.603338500019,0.011139499954879284,0.022770199924707413,3860.7490999000147,3861.9182891002856,right,0,3.298618200235069,None,None,,,,,,,,,,,,1_L2,001,2025-04-21_10h08.16.709,LangExperimentstress,2024.2.4,60.251126700440025,2025-04-21 10h09.25.827904 -0400,
sounds/36c_bordar.wav,CVC,Unstressed,Match,past,num_2,0.0,0.2,1.0,1.078468243634259,1.3288624855324,1.3414992042824,101,30,31,32,33,34,0,0.8,0.878468243634259,1.1288624855324,1.1414992042824,36c_bordar.wav,,c,,11,11,0,,,,,None,36,left,0,3.5223635998554528,None,,,,,,,0,11,11,1,3861.955815100111,,,,,,,,,,,,,,,,,,,,,,,3865.4884717999958,3865.4885626002215,,,,3861.945568600204,3861.9483476333635,3861.955815100111,3861.955815100111,0.02369379997253418,0.0349696003831923,3864.2316891001537,3865.4843935002573,left,0,3.5223635998554528,None,None,,,,,,,,,,,,1_L2,001,2025-04-21_10h08.16.709,LangExperimentstress,2024.2.4,60.251126700440025,2025-04-21 10h09.25.827904 -0400,
sounds/11a_pegar.wav,CVC,Stressed,Match,present,num_1,0.0,0.2,0.8182808977343741,0.831294515585661,0.98,1.012063288108519,101,10,11,12,13,14,0,0.618280897734374,0.631294515585661,0.78,0.812063288108519,11a_pegar.wav,,a,,12,12,0,,,,,None,11,left,0,2.3963736998848617,None,,,,,,,0,12,12,3,3865.5287224003114,,,,,,,,,,,,,,,,,,,,,,,3867.939187299926,3867.939369600266,,,,3865.517024700064,3865.5314912001604,3865.5287224003114,3865.5287224003114,0.028500300366431475,0.04143800027668476,3867.481507100165,3867.934944800101,left,0,2.3963736998848617,None,None,,,,,,,,,,,,1_L2,001,2025-04-21_10h08.16.709,LangExperimentstress,2024.2.4,60.251126700440025,2025-04-21 10h09.25.827904 -0400,
sounds/23a_tomar.wav,CVC,Stressed,Match,present,num_1,0.0,0.2,0.9453179615162032,0.95,1.08,1.158644495081018,101,10,11,12,13,14,0,0.745317961516203,0.75,0.88,0.958644495081018,23a_tomar.wav,,a,,13,13,0,,,,,None,23,right,0,2.1231901003047824,None,,,,,,,0,13,13,39,3867.978740800172,,,,,,,,,,,,,,,,,,,,,,,3870.1191774001345,3870.1192085999064,,,,3867.967714600265,3867.9819838001395,3867.978740800172,3867.978740800172,0.028375700116157532,0.04058480029925704,3869.880963699892,3870.1160456999205,right,0,2.1231901003047824,None,None,,,,,,,,,,,,1_L2,001,2025-04-21_10h08.16.709,LangExperimentstress,2024.2.4,60.251126700440025,2025-04-21 10h09.25.827904 -0400,
sounds/16a_llevar.wav,CVC,Stressed,Match,present,num_1,0.0,0.2,0.929084516317274,0.964936524692279,1.08,1.131864014418682,101,10,11,12,13,14,0,0.729084516317274,0.764936524692279,0.88,0.931864014418682,16a_llevar.wav,,a,,14,14,0,,,,,None,16,right,0,4.094507500063628,None,,,,,,,0,14,14,21,3870.1433466002345,,,,,,,,,,,,,,,,,,,,,,,3874.250344400294,3874.25037829997,,,,3870.1331950998865,3870.147963733537,3870.1433466002345,3870.1433466002345,0.014006499666720629,0.02488579973578453,3872.0641713002697,3874.2486553001218,right,0,4.094507500063628,None,None,,,,,,,,,,,,1_L2,001,2025-04-21_10h08.16.709,LangExperimentstress,2024.2.4,60.251126700440025,2025-04-21 10h09.25.827904 -0400,
sounds/20c_cubrir.wav,CVC,Unstressed,Match,past,num_2,0.0,0.2,0.980138641742621,1.01,1.192436112212021,1.28412143493692,101,30,31,32,33,34,0,0.780138641742621,0.81,0.992436112212021,1.08412143493692,20c_cubrir.wav,,c,,15,15,0,,,,,None,20,right,0,4.2302179001271725,None,,,,,,,0,15,15,31,3874.2720830999315,,,,,,,,,,,,,,,,,,,,,,,3878.5162351001054,3878.51627760008,,,,3874.2633123002015,3874.264198866735,3874.2720830999315,3874.2720830999315,0.012964699883013964,0.02222870010882616,3876.413633100223,3878.5148265003227,right,0,4.2302179001271725,None,None,,,,,,,,,,,,1_L2,001,2025-04-21_10h08.16.709,LangExperimentstress,2024.2.4,60.251126700440025,2025-04-21 10h09.25.827904 -0400,
sounds/25b_ganar.wav,CVC,Unstressed,Mismatch,present,num_1,0.0,0.2,1.152097938368055,1.15990068760488,1.28904165650454,1.37272500435153,101,20,21,22,23,24,0,0.952097938368055,0.95990068760488,1.08904165650454,1.17272500435153,25b_ganar.wav,,b,,16,16,0,,,,,None,25,right,0,2.378600699827075,None,,,,,,,0,16,16,8,3878.538273199927,,,,,,,,,,,,,,,,,,,,,,,3880.9354097000323,3880.935451600235,,,,3878.5294623998925,3878.5304255667766,3878.538273199927,3878.538273199927,0.013298799749463797,0.02273909980431199,3880.881627100054,3880.9327007001266,right,0,2.378600699827075,None,None,,,,,,,,,,,,1_L2,001,2025-04-21_10h08.16.709,LangExperimentstress,2024.2.4,60.251126700440025,2025-04-21 10h09.25.827904 -0400,
sounds/22d_dejar.wav,CVC,Stressed,Mismatch,past,num_2,0.0,0.2,0.8500000000000001,1.02,1.152543366608796,1.28794346788194,101,40,41,42,43,44,0,0.65,0.82,0.952543366608796,1.08794346788194,22d_dejar.wav,,d,,17,17,0,,,,,None,22,left,0,2.7742770998738706,None,,,,,,,0,17,17,14,3880.9596306001768,,,,,,,,,,,,,,,,,,,,,,,3883.752100800164,3883.752140100114,,,,3880.9499743999913,3880.9646174336167,3880.9596306001768,3880.9596306001768,0.014543200377374887,0.024806800298392773,3883.0138948000968,3883.7496557002887,left,0,2.7742770998738706,None,None,,,,,,,,,,,,1_L2,001,2025-04-21_10h08.16.709,LangExperimentstress,2024.2.4,60.251126700440025,2025-04-21 10h09.25.827904 -0400,
sounds/19a_marcar.wav,CVC,Stressed,Match,present,num_1,0.0,0.2,0.8400000000000001,0.97,1.245718359375,1.273519140625,101,10,11,12,13,14,0,0.64,0.77,1.045718359375,1.073519140625,19a_marcar.wav,,a,,18,18,0,,,,,None,19,right,0,2.981591399759054,None,,,,,,,0,18,18,19,3883.776206600014,,,,,,,,,,,,,,,,,,,,,,,3886.7666156999767,3886.766646500211,,,,3883.766995300073,3883.7814893332625,3883.776206600014,3883.776206600014,0.014876399654895067,0.024726699572056532,3885.6804285999388,3886.7652870002203,right,0,2.981591399759054,None,None,,,,,,,,,,,,1_L2,001,2025-04-21_10h08.16.709,LangExperimentstress,2024.2.4,60.251126700440025,2025-04-21 10h09.25.827904 -0400,
sounds/24d_mirar.wav,CVC,Stressed,Mismatch,past,num_2,0.0,0.2,0.71,0.8119545789930551,0.9389863642939812,0.9746780743634248,101,40,41,42,43,44,0,0.51,0.611954578993055,0.738986364293981,0.774678074363425,24d_mirar.wav,,d,,19,19,0,,,,,space,24,right,0,2.0475914999842644,None,9.933176300022751,None,,,,,0,19,19,11,3886.789496200159,,,,,,,,,,,,,,,,,,,,,,,3888.8501468002796,3898.7994663999416,,,,3886.7789610000327,3886.7805926665355,3886.789496200159,3886.789496200159,0.01255169976502657,0.023320999927818775,3888.4975211001,3888.8488413998857,right,0,2.0475914999842644,None,space,3888.86397340009,3888.86397340009,9.933176300022751,None,,,,,,,,1_L2,001,2025-04-21_10h08.16.709,LangExperimentstress,2024.2.4,60.251126700440025,2025-04-21 10h09.25.827904 -0400,
sounds/27c_tirar.wav,CVC,Unstressed,Match,past,num_2,0.0,0.2,0.8119442057291659,0.8307495153356481,0.9885306495949072,0.998621303530092,101,30,31,32,33,34,0,0.611944205729166,0.630749515335648,0.788530649594907,0.798621303530092,27c_tirar.wav,,c,,20,20,0,,,,,None,27,left,0,2.390546999871731,None,,,,,,,0,20,20,10,3898.8232547002845,,,,,,,,,,,,,,,,,,,,,,,3901.2182706003077,3901.2183078001253,,,,3898.8132646000013,3898.8147927667637,3898.8232547002845,3898.8232547002845,0.01387029979377985,0.02453560009598732,3900.8308256003074,3901.2162876999937,left,0,2.390546999871731,None,None,,,,,,,,,,,,1_L2,001,2025-04-21_10h08.16.709,LangExperimentstress,2024.2.4,60.251126700440025,2025-04-21 10h09.25.827904 -0400,
sounds/39b_manchar.wav,CVC,Unstressed,Mismatch,present,num_1,0.0,0.2,0.81,0.91203755787037,1.140584317129629,1.2139708912037,101,20,21,22,23,24,0,0.61,0.71203755787037,0.940584317129629,1.0139708912037,39b_manchar.wav,,b,,21,21,0,,,,,None,39,right,0,2.5548359001986682,None,,,,,,,0,21,21,7,3901.242177600041,,,,,,,,,,,,,,,,,,,,,,,3903.8004308999516,3903.800462800078,,,,3901.2316696001217,3901.2482615333365,3901.242177600041,3901.242177600041,0.013420999981462955,0.024591899942606688,3903.497450400144,3903.7991824001074,right,0,2.5548359001986682,None,None,,,,,,,,,,,,1_L2,001,2025-04-21_10h08.16.709,LangExperimentstress,2024.2.4,60.251126700440025,2025-04-21 10h09.25.827904 -0400,
sounds/10d_vender.wav,CVC,Stressed,Mismatch,past,num_2,0.0,0.2,0.832830209056713,0.8775468199411529,1.109501330306288,1.158928471023364,101,40,41,42,43,44,0,0.632830209056713,0.677546819941153,0.909501330306288,0.958928471023364,10d_vender.wav,,d,,22,22,0,,,,,None,10,left,0,2.9012624002061784,None,,,,,,,0,22,22,12,3903.8235654002056,,,,,,,,,,,,,,,,,,,,,,,3906.7345537999645,3906.734604100231,,,,3903.8138438002206,3903.8146873666597,3903.8235654002056,3903.8235654002056,0.01343739964067936,0.02361719962209463,3905.730893699918,3906.73347690003,left,0,2.9012624002061784,None,None,,,,,,,,,,,,1_L2,001,2025-04-21_10h08.16.709,LangExperimentstress,2024.2.4,60.251126700440025,2025-04-21 10h09.25.827904 -0400,
sounds/17d_tragar.wav,CVC,Stressed,Mismatch,past,num_2,0.0,0.2,1.070609360532407,1.117973654513888,1.30915316840277,1.35458539534397,101,40,41,42,43,44,0,0.870609360532407,0.917973654513888,1.10915316840277,1.15458539534397,17d_tragar.wav,,d,,23,23,0,,,,,None,17,left,0,4.528279399964958,None,,,,,,,0,23,23,26,3906.7576822000556,,,,,,,,,,,,,,,,,,,,,,,3911.3022056999616,3911.302273000125,,,,3906.7474056002684,3906.749106666601,3906.7576822000556,3906.7576822000556,0.012956200167536736,0.023857200052589178,3909.0649831001647,3911.2994915000163,left,0,4.528279399964958,None,None,,,,,,,,,,,,1_L2,001,2025-04-21_10h08.16.709,LangExperimentstress,2024.2.4,60.251126700440025,2025-04-21 10h09.25.827904 -0400,
sounds/12a_matar.wav,CVC,Stressed,Match,present,num_1,0.0,0.2,0.8400000000000001,0.96,1.17307472511574,1.186647497106481,101,10,11,12,13,14,0,0.64,0.76,0.97307472511574,0.986647497106481,12a_matar.wav,,a,,24,24,0,,,,,None,12,right,0,2.479879000224173,None,,,,,,,0,24,24,25,3911.3263962999918,,,,,,,,,,,,,,,,,,,,,,,3913.8181513003074,3913.8181810001843,,,,3911.3165565999225,3911.331418733237,3911.3263962999918,3911.3263962999918,0.014303700067102909,0.02481370000168681,3913.5310284001753,3913.8161194999702,right,0,2.479879000224173,None,None,,,,,,,,,,,,1_L2,001,2025-04-21_10h08.16.709,LangExperimentstress,2024.2.4,60.251126700440025,2025-04-21 10h09.25.827904 -0400,
sounds/38b_pagar.wav,CVC,Unstressed,Mismatch,present,num_1,0.0,0.2,1.166737304687499,1.185271158854166,1.29521061197916,1.4055712890624898,101,20,21,22,23,24,0,0.966737304687499,0.985271158854166,1.09521061197916,1.20557128906249,38b_pagar.wav,,b,,25,25,0,,,,,None,38,right,0,3.357325700111687,None,,,,,,,0,25,25,17,3913.8401477001607,,,,,,,,,,,,,,,,,,,,,,,3917.2009101002477,3917.20097240014,,,,3913.8311598999426,3913.8313036668737,3913.8401477001607,3913.8401477001607,0.013001000043004751,0.022876800037920475,3916.0983176999725,3917.199899900239,right,0,3.357325700111687,None,None,,,,,,,,,,,,1_L2,001,2025-04-21_10h08.16.709,LangExperimentstress,2024.2.4,60.251126700440025,2025-04-21 10h09.25.827904 -0400,
sounds/08d_filtrar.wav,CVC,Stressed,Mismatch,past,num_2,0.0,0.2,0.7526856695589441,0.87808115762362,1.118901843962886,1.172598812485867,101,40,41,42,43,44,0,0.552685669558944,0.67808115762362,0.918901843962886,0.972598812485867,08d_filtrar.wav,,d,,26,26,0,,,,,None,8,right,0,2.356659600045532,None,,,,,,,0,26,26,15,3917.225314500276,,,,,,,,,,,,,,,,,,,,,,,3919.590596199967,3919.5906807999127,,,,3917.216016500257,3917.231809633443,3917.225314500276,3917.225314500276,0.015051600057631731,0.024872299749404192,3918.9999593999237,3919.586504300125,right,0,2.356659600045532,None,None,,,,,,,,,,,,1_L2,001,2025-04-21_10h08.16.709,LangExperimentstress,2024.2.4,60.251126700440025,2025-04-21 10h09.25.827904 -0400,
sounds/02c_buscar.wav,CVC,Unstressed,Match,past,num_2,0.0,0.2,0.8700000000000001,1.07,1.26,1.40703946035879,101,30,31,32,33,34,0,0.67,0.87,1.06,1.20703946035879,02c_buscar.wav,,c,,27,27,0,,,,,None,2,right,0,4.039560700301081,None,,,,,,,0,27,27,34,3919.6298183999024,,,,,,,,,,,,,,,,,,,,,,,3923.6897567003034,3923.6898555001244,,,,3919.6176066999324,3919.633532100078,3919.6298183999024,3919.6298183999024,0.026942599564790726,0.04037029994651675,3921.766047900077,3923.685744300019,right,0,4.039560700301081,None,None,,,,,,,,,,,,1_L2,001,2025-04-21_10h08.16.709,LangExperimentstress,2024.2.4,60.251126700440025,2025-04-21 10h09.25.827904 -0400,
sounds/37b_pasar.wav,CVC,Unstressed,Mismatch,present,num_1,0.0,0.2,1.033132486979166,1.052087565104166,1.159499674479166,1.27702115885416,101,20,21,22,23,24,0,0.833132486979166,0.852087565104166,0.959499674479166,1.07702115885416,37b_pasar.wav,,b,,28,28,0,,,,,None,37,left,0,2.8912327997386456,None,,,,,,,0,28,28,23,3923.729896000121,,,,,,,,,,,,,,,,,,,,,,,3926.6361966002733,3926.6362764001824,,,,3923.718769500032,3923.732942000218,3923.729896000121,3923.729896000121,0.028942700009793043,0.041316499933600426,3925.849980799947,3926.6339086000808,left,0,2.8912327997386456,None,None,,,,,,,,,,,,1_L2,001,2025-04-21_10h08.16.709,LangExperimentstress,2024.2.4,60.251126700440025,2025-04-21 10h09.25.827904 -0400,
sounds/33b_culpar.wav,CVC,Unstressed,Mismatch,present,num_1,0.0,0.2,0.8606178431336959,0.869103678029107,1.109891641372144,1.131540467434179,101,20,21,22,23,24,0,0.660617843133696,0.669103678029107,0.909891641372144,0.931540467434179,33b_culpar.wav,,b,,29,29,0,,,,,space,33,right,0,1.9664398999884725,None,7.050196399912238,None,,,,,0,29,29,35,3926.663868899923,,,,,,,,,,,,,,,,,,,,,,,3928.646392200142,3935.716097800061,,,,3926.6536396001466,3926.6652758332284,3926.663868899923,3926.663868899923,0.017382499761879444,0.02841689996421337,,3928.632732500322,right,0,1.9664398999884725,None,space,3928.6509110000916,3928.6509110000916,7.050196399912238,None,,,,,,,,1_L2,001,2025-04-21_10h08.16.709,LangExperimentstress,2024.2.4,60.251126700440025,2025-04-21 10h09.25.827904 -0400,
sounds/30a_fundar.wav,CVC,Stressed,Match,present,num_1,0.0,0.2,0.77,0.91,1.112685546875,1.12,101,10,11,12,13,14,0,0.57,0.71,0.912685546875,0.92,30a_fundar.wav,,a,,30,30,0,,,,,None,30,right,0,3.053374099545181,None,,,,,,,0,30,30,36,3935.737295300234,,,,,,,,,,,,,,,,,,,,,,,3938.8064156002365,3938.80653790012,,,,3935.7277108002454,3935.731442066903,3935.737295300234,3935.737295300234,0.011636700015515089,0.021725900005549192,3937.898782300297,3938.8030022000894,right,0,3.053374099545181,None,None,,,,,,,,,,,,1_L2,001,2025-04-21_10h08.16.709,LangExperimentstress,2024.2.4,60.251126700440025,2025-04-21 10h09.25.827904 -0400,
sounds/21a_mezclar.wav,CVC,Stressed,Match,present,num_1,0.0,0.2,0.78,0.9121902777777772,1.20214212962962,1.27,101,10,11,12,13,14,0,0.58,0.712190277777777,1.00214212962962,1.07,21a_mezclar.wav,,a,,31,31,0,,,,,None,21,right,0,3.8681141999550164,None,,,,,,,0,31,31,27,3938.841636599973,,,,,,,,,,,,,,,,,,,,,,,3942.724716700148,3942.724865099881,,,,3938.8316605999134,3938.8332823334576,3938.841636599973,3938.841636599973,0.025108200032263994,0.03622430004179478,3940.866742100101,3942.720599200111,right,0,3.8681141999550164,None,None,,,,,,,,,,,,1_L2,001,2025-04-21_10h08.16.709,LangExperimentstress,2024.2.4,60.251126700440025,2025-04-21 10h09.25.827904 -0400,
sounds/13c_montar.wav,CVC,Unstressed,Match,past,num_2,0.0,0.2,0.8800000000000001,0.98,1.24543012152777,1.2594709201388798,101,30,31,32,33,34,0,0.68,0.78,1.04543012152777,1.05947092013888,13c_montar.wav,,c,,32,32,0,,,,,None,13,left,0,4.56548779970035,None,,,,,,,0,32,32,33,3942.7598816999234,,,,,,,,,,,,,,,,,,,,,,,3947.334162999876,3947.334198600147,,,,3942.7501969002187,3942.750424833627,3942.7598816999234,3942.7598816999234,0.025383299682289362,0.035870600026100874,3945.067464100197,3947.3329619001597,left,0,4.56548779970035,None,None,,,,,,,,,,,,1_L2,001,2025-04-21_10h08.16.709,LangExperimentstress,2024.2.4,60.251126700440025,2025-04-21 10h09.25.827904 -0400,
sounds/18b_cumplir.wav,CVC,Unstressed,Mismatch,present,num_1,0.0,0.2,1.2408027271412,1.25568597366898,1.46256310040509,1.54144430700231,101,20,21,22,23,24,0,1.0408027271412,1.05568597366898,1.26256310040509,1.34144430700231,18b_cumplir.wav,,b,,33,33,0,,,,,None,18,left,0,3.60346859972924,None,,,,,,,0,33,33,29,3947.3541478002444,,,,,,,,,,,,,,,,,,,,,,,3950.971063999925,3950.971137000248,,,,3947.345069500152,3947.348429766546,3947.3541478002444,3947.3541478002444,0.010882699862122536,0.020605300087481737,3949.5484768003225,3950.9673009999096,left,0,3.60346859972924,None,None,,,,,,,,,,,,1_L2,001,2025-04-21_10h08.16.709,LangExperimentstress,2024.2.4,60.251126700440025,2025-04-21 10h09.25.827904 -0400,
sounds/14b_borrar.wav,CVC,Unstressed,Mismatch,present,num_1,0.0,0.2,0.72,0.770187630208333,0.851961241319444,0.964399956597222,101,20,21,22,23,24,0,0.52,0.570187630208333,0.651961241319444,0.764399956597222,14b_borrar.wav,,b,,34,34,0,,,,,None,14,right,0,2.7077040001749992,None,,,,,,,0,34,34,20,3950.994308799971,,,,,,,,,,,,,,,,,,,,,,,3953.7177734998986,3953.717828700319,,,,3950.983783900272,3950.9991784334497,3950.994308799971,3950.994308799971,0.012667899951338768,0.023821800015866756,3952.9496921002865,3953.7161996001378,right,0,2.7077040001749992,None,None,,,,,,,,,,,,1_L2,001,2025-04-21_10h08.16.709,LangExperimentstress,2024.2.4,60.251126700440025,2025-04-21 10h09.25.827904 -0400,
sounds/31d_tocar.wav,CVC,Stressed,Mismatch,past,num_2,0.0,0.2,0.8493931756807,0.8650112062639721,1.006860547391531,1.049162047334928,101,40,41,42,43,44,0,0.6493931756807,0.665011206263972,0.806860547391531,0.849162047334928,31d_tocar.wav,,d,,35,35,0,,,,,None,31,right,0,2.103670199867338,None,,,,,,,0,35,35,30,3953.741192799993,,,,,,,,,,,,,,,,,,,,,,,3955.851222400088,3955.8512583998963,,,,3953.7323742001317,3953.7484904333332,3953.741192799993,3953.741192799993,0.014558800030499697,0.023909700103104115,3955.649041000288,3955.850073200185,right,0,2.103670199867338,None,None,,,,,,,,,,,,1_L2,001,2025-04-21_10h08.16.709,LangExperimentstress,2024.2.4,60.251126700440025,2025-04-21 10h09.25.827904 -0400,
sounds/05a_fumar.wav,CVC,Stressed,Match,present,num_1,0.0,0.2,1.15,1.36712555700231,1.48,1.56308830295138,101,10,11,12,13,14,0,0.95,1.16712555700231,1.28,1.36308830295138,05a_fumar.wav,,a,,36,36,0,,,,,None,5,right,0,3.0506953997537494,None,,,,,,,0,36,36,38,3955.874719900079,,,,,,,,,,,,,,,,,,,,,,,3958.9368970999494,3958.936936600134,,,,3955.8649716000073,3955.865489466644,3955.874719900079,3955.874719900079,0.01382200000807643,0.023964600171893835,3958.2489300002344,3958.934084900189,right,0,3.0506953997537494,None,None,,,,,,,,,,,,1_L2,001,2025-04-21_10h08.16.709,LangExperimentstress,2024.2.4,60.251126700440025,2025-04-21 10h09.25.827904 -0400,
sounds/01d_salvar.wav,CVC,Stressed,Mismatch,past,num_2,0.0,0.2,0.8500000000000001,0.996069502314814,1.23,1.29,101,40,41,42,43,44,0,0.65,0.796069502314814,1.03,1.09,01d_salvar.wav,,d,,37,37,0,,,,,None,1,right,0,4.716466800309718,None,,,,,,,0,37,37,37,3958.9611068000086,,,,,,,,,,,,,,,,,,,,,,,3963.687364799902,3963.6873913998716,,,,3958.9500350998715,3958.96589423356,3958.9611068000086,3958.9611068000086,0.01312029967084527,0.02479729987680912,3961.032853099983,3963.684741599951,right,0,4.716466800309718,None,None,,,,,,,,,,,,1_L2,001,2025-04-21_10h08.16.709,LangExperimentstress,2024.2.4,60.251126700440025,2025-04-21 10h09.25.827904 -0400,
sounds/15b_partir.wav,CVC,Unstressed,Mismatch,present,num_1,0.0,0.2,0.826865400752314,0.842973894883327,1.1042888772729471,1.120815958498066,101,20,21,22,23,24,0,0.626865400752314,0.642973894883327,0.904288877272947,0.920815958498066,15b_partir.wav,,b,,38,38,0,,,,,None,15,left,0,3.398439900018275,None,,,,,,,0,38,38,22,3963.71156920027,,,,,,,,,,,,,,,,,,,,,,,3967.1184820001945,3967.1185201001354,,,,3963.7016729000024,3963.7163622333983,3963.71156920027,3963.71156920027,0.01430319994688034,0.024820999708026648,3965.7824205001816,3967.117241400294,left,0,3.398439900018275,None,None,,,,,,,,,,,,1_L2,001,2025-04-21_10h08.16.709,LangExperimentstress,2024.2.4,60.251126700440025,2025-04-21 10h09.25.827904 -0400,
sounds/07c_tumbar.wav,CVC,Unstressed,Match,past,num_2,0.0,0.2,0.9084024930273432,0.9247360728973012,1.143289673625005,1.154847989033482,101,30,31,32,33,34,0,0.708402493027343,0.724736072897301,0.943289673625005,0.954847989033482,07c_tumbar.wav,,c,,39,39,0,,,,,None,7,right,0,2.5073195002041757,None,,,,,,,0,39,39,6,3967.138039799873,,,,,,,,,,,,,,,,,,,,,,,3969.6512338002212,3969.6512766000815,,,,3967.128982699942,3967.132437066703,3967.138039799873,3967.138039799873,0.01049409992992878,0.02005029981955886,3969.0989891001955,3969.6500253998674,right,0,2.5073195002041757,None,None,,,,,,,,,,,,1_L2,001,2025-04-21_10h08.16.709,LangExperimentstress,2024.2.4,60.251126700440025,2025-04-21 10h09.25.827904 -0400,
,,,,,,,,,,,,,,,,,,,,,,,,,,,,,,,,,,,,,,,,,,,,,,,,,,,,,,,,,,,,,,,,,,,,,,,,,,,,,,,,,,,,,,,,,,,,,,,3969.651360299904,3969.6654329001904,3969.6654329001904,3972.083649400156,space,2.4041271000169218,None,1_L2,001,2025-04-21_10h08.16.709,LangExperimentstress,2024.2.4,60.251126700440025,2025-04-21 10h09.25.827904 -0400,
