sounds,syll,stress_unstress,suffix,present_past,corrAns,trigger_item,trigger_senonset,trigger_verbsonset,trigger_1_F0,trigger_suffix,trigger_2_F0,ID_item,ID_senonset,ID_verbonset,ID_1_F0,ID_suffix,ID_2_F0,ms_senonset,ms_verbonset,ms_1_F0,ms_suffix,ms_2_F0,file_name,sentence,cond,combo,thisN,thisTrialN,thisRepN,key_resp_4.keys,key_resp_4.corr,key_resp_4.rt,key_resp_4.duration,key_resp_5.keys,item_id,key_resp_2.keys,key_resp_2.corr,key_resp_2.rt,key_resp_2.duration,key_resp_5.rt,key_resp_5.duration,practice_trials.thisRepN,practice_trials.thisTrialN,practice_trials.thisN,practice_trials.thisIndex,experimental_trials.thisRepN,experimental_trials.thisTrialN,experimental_trials.thisN,experimental_trials.thisIndex,thisRow.t,notes,instructions.started,instr.started,key_resp.started,instructions.stopped,key_resp.keys,key_resp.rt,key_resp.duration,init_practice.started,init_practice.stopped,test_practice.started,test_sound_2.started,key_resp_4.started,polygon.started,serialPort_item_2.started,serialPort_item_2.stopped,test_sound_2.stopped,test_practice.stopped,practice_trials.key_resp_4.keys,practice_trials.key_resp_4.corr,practice_trials.key_resp_4.rt,practice_trials.key_resp_4.duration,takeabreak.started,takeabreak.stopped,practice_trials.key_resp_5.keys,init_trials.started,init_trials.stopped,test.started,test_sound.started,key_resp_2.started,polygon_2.started,serialPort_item.started,serialPort_item.stopped,test_sound.stopped,test.stopped,experimental_trials.key_resp_2.keys,experimental_trials.key_resp_2.corr,experimental_trials.key_resp_2.rt,experimental_trials.key_resp_2.duration,experimental_trials.key_resp_5.keys,text_3.started,key_resp_5.started,experimental_trials.key_resp_5.rt,experimental_trials.key_resp_5.duration,Thanks.started,text_2.started,key_resp_thanks.started,Thanks.stopped,key_resp_thanks.keys,key_resp_thanks.rt,key_resp_thanks.duration,participant,session,date,expName,psychopyVersion,frameRate,expStart,
,,,,,,,,,,,,,,,,,,,,,,,,,,,,,,,,,,,,,,,,,,,,,,,,,,,,0.002745699996012263,0.008085499997832812,0.008085499997832812,2970.137161199993,space,2970.1029890999926,None,,,,,,,,,,,,,,,,,,,,,,,,,,,,,,,,,,,,,,,,,,,,20_L2,001,2025-04-30_13h10.02.276,LangExperimentstress,2024.2.4,60.01212244847201,2025-04-30 13h10.10.847257 -0400,
,,,,,,,,,,,,,,,,,,,,,,,,,,,,,,,,,,,,,,,,,,,,,,,,,,,,,,,,,,,2970.1372642999922,2970.1380145000003,,,,,,,,,,,,,,,,,,,,,,,,,,,,,,,,,,,,,,,,,,20_L2,001,2025-04-30_13h10.02.276,LangExperimentstress,2024.2.4,60.01212244847201,2025-04-30 13h10.10.847257 -0400,
sounds/p3c_saltar.wav,CVC,Unstressed,Match,past,num_2,0.0,0.205513,0.8629519999999999,0.984841,1.219715,1.27,101,30,31,32,33,34,0.005513,0.662952,0.784841,1.019715,1.07,p3c_saltar.wav,p3,c,p3c,0,0,0,left,0,4.8359308000071906,None,None,,,,,,,,0,0,0,2,,,,,2970.1636351999914,,,,,,,,,,,2970.150582199989,2970.1585035333346,2970.1636351999914,2970.1636351999914,0.01258560000860598,0.02673349999531638,2972.2417586999945,2975.0115974999935,left,0,4.8359308000071906,None,2975.015922599996,2975.0160162999964,None,,,,,,,,,,,,,,,,,,,,,,,,,,,20_L2,001,2025-04-30_13h10.02.276,LangExperimentstress,2024.2.4,60.01212244847201,2025-04-30 13h10.10.847257 -0400,
sounds/p4d_cortar.wav,CVC,Stressed,Mismatch,past,num_2,0.0,0.205513,0.8629519999999999,0.984841,1.219715,1.27,101,40,41,42,43,44,0.005513,0.662952,0.784841,1.019715,1.07,p4d_cortar.wav,p4,d,p4d,1,1,0,right,0,4.365201199994772,None,None,,,,,,,,0,1,1,3,,,,,2975.0340247999993,,,,,,,,,,,2975.0219356000016,2975.0254129666614,2975.0340247999993,2975.0340247999993,0.00592490000417456,0.019331499992404133,2977.5416853999923,2979.411553699989,right,0,4.365201199994772,None,2979.414318199997,2979.414435499988,None,,,,,,,,,,,,,,,,,,,,,,,,,,,20_L2,001,2025-04-30_13h10.02.276,LangExperimentstress,2024.2.4,60.01212244847201,2025-04-30 13h10.10.847257 -0400,
sounds/p1a_saltar.wav,CVC,Stressed,Match,present,num_1,0.0,0.205513,0.8629519999999999,0.984841,1.219715,1.27,101,10,11,12,13,14,0.005513,0.662952,0.784841,1.019715,1.07,p1a_saltar.wav,p1,a,p1a,2,2,0,right,0,7.897565899998881,None,None,,,,,,,,0,2,2,0,,,,,2979.429438799998,,,,,,,,,,,2979.4192905999953,2979.425207566663,2979.429438799998,2979.429438799998,0.004863199996179901,0.015873399999691173,2981.6755508999922,2987.3435057999886,right,0,7.897565899998881,None,2987.3469097999914,2987.3469807999936,None,,,,,,,,,,,,,,,,,,,,,,,,,,,20_L2,001,2025-04-30_13h10.02.276,LangExperimentstress,2024.2.4,60.01212244847201,2025-04-30 13h10.10.847257 -0400,
sounds/p2b_cortar.wav,CVC,Unstressed,Mismatch,present,num_1,0.0,0.205513,0.8629519999999999,0.984841,1.219715,1.27,101,20,21,22,23,24,0.005513,0.662952,0.784841,1.019715,1.07,p2b_cortar.wav,p2,b,p2b,3,3,0,right,0,5.7484576999995625,None,None,,,,,,,,0,3,3,1,,,,,2987.3619340000005,,,,,,,,,,,2987.3513707999955,2987.3582187666657,2987.3619340000005,2987.3619340000005,0.004399199999170378,0.015803099988261238,2989.624901499992,2993.12755759999,right,0,5.7484576999995625,None,2993.1316519999964,2993.1317444000015,None,,,,,,,,,,,,,,,,,,,,,,,,,,,20_L2,001,2025-04-30_13h10.02.276,LangExperimentstress,2024.2.4,60.01212244847201,2025-04-30 13h10.10.847257 -0400,
,,,,,,,,,,,,,,,,,,,,,,,,,,,,,,,,,,,,,,,,,,,,,,,,,,,,2993.1319782999926,2993.141957999993,2993.141957999993,3037.694303199998,space,44.54453949999879,None,,,,,,,,,,,,,,,,,,,,,,,,,,,,,,,,,,,,,,,,,,,,20_L2,001,2025-04-30_13h10.02.276,LangExperimentstress,2024.2.4,60.01212244847201,2025-04-30 13h10.10.847257 -0400,
,,,,,,,,,,,,,,,,,,,,,,,,,,,,,,,,,,,,,,,,,,,,,,,,,,,,,,,,,,,,,,,,,,,,,,,,,,,,3037.6943938999902,3037.695356700002,,,,,,,,,,,,,,,,,,,,,,,,,20_L2,001,2025-04-30_13h10.02.276,LangExperimentstress,2024.2.4,60.01212244847201,2025-04-30 13h10.10.847257 -0400,
sounds/01d_salvar.wav,CVC,Stressed,Mismatch,past,num_2,0.0,0.2,0.8500000000000001,0.996069502314814,1.23,1.29,101,40,41,42,43,44,0,0.65,0.796069502314814,1.03,1.09,01d_salvar.wav,,d,,0,0,0,,,,,None,1,left,0,4.90126749999763,None,,,,,,,0,0,0,37,3037.7306353999884,,,,,,,,,,,,,,,,,,,,,,,3042.649000499994,3042.6490913000016,,,,3037.719613399997,3037.7250878333225,3037.7306353999884,3037.7306353999884,0.024257899989606813,0.036062399987713434,3039.791754299993,3042.6449901000015,left,0,4.90126749999763,None,None,,,,,,,,,,,,20_L2,001,2025-04-30_13h10.02.276,LangExperimentstress,2024.2.4,60.01212244847201,2025-04-30 13h10.10.847257 -0400,
sounds/17d_tragar.wav,CVC,Stressed,Mismatch,past,num_2,0.0,0.2,1.070609360532407,1.117973654513888,1.30915316840277,1.35458539534397,101,40,41,42,43,44,0,0.870609360532407,0.917973654513888,1.10915316840277,1.15458539534397,17d_tragar.wav,,d,,1,1,0,,,,,None,17,left,0,6.241964599990752,None,,,,,,,0,1,1,26,3042.6684360999934,,,,,,,,,,,,,,,,,,,,,,,3048.929201699997,3048.92929249999,,,,3042.6554714999947,3042.6589077666617,3042.6684360999934,3042.6684360999934,0.00639979999687057,0.020405499992193654,3044.9751838999946,3048.926507299999,left,0,6.241964599990752,None,None,,,,,,,,,,,,20_L2,001,2025-04-30_13h10.02.276,LangExperimentstress,2024.2.4,60.01212244847201,2025-04-30 13h10.10.847257 -0400,
sounds/26a_bajar.wav,CVC,Stressed,Match,present,num_1,0.0,0.2,0.77,0.8999999999999999,1.03,1.171181705729166,101,10,11,12,13,14,0,0.57,0.7,0.83,0.971181705729166,26a_bajar.wav,,a,,2,2,0,,,,,None,26,left,0,4.303553200006718,None,,,,,,,0,2,2,13,3048.9440075999883,,,,,,,,,,,,,,,,,,,,,,,3053.2646274,3053.2647043999896,,,,3048.9333483999944,3048.9417866666668,3048.9440075999883,3048.9440075999883,0.004073499992955476,0.015251099990564398,3051.0084179999976,3053.260750699992,left,0,4.303553200006718,None,None,,,,,,,,,,,,20_L2,001,2025-04-30_13h10.02.276,LangExperimentstress,2024.2.4,60.01212244847201,2025-04-30 13h10.10.847257 -0400,
sounds/06d_soplar.wav,CVC,Stressed,Mismatch,past,num_2,0.0,0.2,0.761291666666666,0.8899999999999999,1.102139687590422,1.166665581687644,101,40,41,42,43,44,0,0.561291666666666,0.69,0.902139687590422,0.966665581687644,06d_soplar.wav,,d,,3,3,0,,,,,None,6,right,0,3.1831856000062544,None,,,,,,,0,3,3,16,3053.2795003999927,,,,,,,,,,,,,,,,,,,,,,,3056.4821736000013,3056.4822557000007,,,,3053.2690696999925,3053.2750441666617,3053.2795003999927,3053.2795003999927,0.00436930000432767,0.01547250000294298,3055.158519599994,3056.478002299991,right,0,3.1831856000062544,None,None,,,,,,,,,,,,20_L2,001,2025-04-30_13h10.02.276,LangExperimentstress,2024.2.4,60.01212244847201,2025-04-30 13h10.10.847257 -0400,
sounds/30a_fundar.wav,CVC,Stressed,Match,present,num_1,0.0,0.2,0.77,0.91,1.112685546875,1.12,101,10,11,12,13,14,0,0.57,0.71,0.912685546875,0.92,30a_fundar.wav,,a,,4,4,0,,,,,None,30,right,0,10.14102740000817,None,,,,,,,0,4,4,36,3056.497297599999,,,,,,,,,,,,,,,,,,,,,,,3066.648961599989,3066.6490534999903,,,,3056.487149499997,3056.492133366661,3056.497297599999,3056.497297599999,0.004900499989162199,0.01589369999419432,3058.6585677999974,3066.64474969999,right,0,10.14102740000817,None,None,,,,,,,,,,,,20_L2,001,2025-04-30_13h10.02.276,LangExperimentstress,2024.2.4,60.01212244847201,2025-04-30 13h10.10.847257 -0400,
sounds/36c_bordar.wav,CVC,Unstressed,Match,past,num_2,0.0,0.2,1.0,1.078468243634259,1.3288624855324,1.3414992042824,101,30,31,32,33,34,0,0.8,0.878468243634259,1.1288624855324,1.1414992042824,36c_bordar.wav,,c,,5,5,0,,,,,None,36,right,0,3.4848613000067417,None,,,,,,,0,5,5,1,3066.6669631999976,,,,,,,,,,,,,,,,,,,,,,,3070.1652788999927,3070.1653649999935,,,,3066.654668499992,3066.6586906666676,3066.6669631999976,3066.6669631999976,0.0056311999942408875,0.01913409998815041,3068.942528899992,3070.1611172999983,right,0,3.4848613000067417,None,None,,,,,,,,,,,,20_L2,001,2025-04-30_13h10.02.276,LangExperimentstress,2024.2.4,60.01212244847201,2025-04-30 13h10.10.847257 -0400,
sounds/21a_mezclar.wav,CVC,Stressed,Match,present,num_1,0.0,0.2,0.78,0.9121902777777772,1.20214212962962,1.27,101,10,11,12,13,14,0,0.58,0.712190277777777,1.00214212962962,1.07,21a_mezclar.wav,,a,,6,6,0,,,,,None,21,left,0,3.0500333999953,None,,,,,,,0,6,6,27,3070.1813227999955,,,,,,,,,,,,,,,,,,,,,,,3073.2478768,3073.247920499998,,,,3070.1703885999887,3070.1752152666636,3070.1813227999955,3070.1813227999955,0.00504410000576172,0.016680400003679097,3072.2084333999956,3073.245381200002,left,0,3.0500333999953,None,None,,,,,,,,,,,,20_L2,001,2025-04-30_13h10.02.276,LangExperimentstress,2024.2.4,60.01212244847201,2025-04-30 13h10.10.847257 -0400,
sounds/07c_tumbar.wav,CVC,Unstressed,Match,past,num_2,0.0,0.2,0.9084024930273432,0.9247360728973012,1.143289673625005,1.154847989033482,101,30,31,32,33,34,0,0.708402493027343,0.724736072897301,0.943289673625005,0.954847989033482,07c_tumbar.wav,,c,,7,7,0,,,,,None,7,right,0,2.9629140999895753,None,,,,,,,0,7,7,6,3073.260388499999,,,,,,,,,,,,,,,,,,,,,,,3076.231761099989,3076.2318592999945,,,,3073.249853100002,3073.2596554666566,3073.260388499999,3073.260388499999,0.0019394999981159344,0.013277699996251613,3075.208384400001,3076.2277570000006,right,0,2.9629140999895753,None,None,,,,,,,,,,,,20_L2,001,2025-04-30_13h10.02.276,LangExperimentstress,2024.2.4,60.01212244847201,2025-04-30 13h10.10.847257 -0400,
sounds/37b_pasar.wav,CVC,Unstressed,Mismatch,present,num_1,0.0,0.2,1.033132486979166,1.052087565104166,1.159499674479166,1.27702115885416,101,20,21,22,23,24,0,0.833132486979166,0.852087565104166,0.959499674479166,1.07702115885416,37b_pasar.wav,,b,,8,8,0,,,,,None,37,left,0,5.504194799999823,None,,,,,,,0,8,8,23,3076.246864899993,,,,,,,,,,,,,,,,,,,,,,,3081.764662699992,3081.764752999996,,,,3076.236830900001,3076.241781466659,3076.246864899993,3076.246864899993,0.0049691999884089455,0.015864199987845495,3078.3582515000016,3081.761089599997,left,0,5.504194799999823,None,None,,,,,,,,,,,,20_L2,001,2025-04-30_13h10.02.276,LangExperimentstress,2024.2.4,60.01212244847201,2025-04-30 13h10.10.847257 -0400,
sounds/22d_dejar.wav,CVC,Stressed,Mismatch,past,num_2,0.0,0.2,0.8500000000000001,1.02,1.152543366608796,1.28794346788194,101,40,41,42,43,44,0,0.65,0.82,0.952543366608796,1.08794346788194,22d_dejar.wav,,d,,9,9,0,,,,,space,22,right,0,3.418092300009448,None,2.3177990000112914,None,,,,,0,9,9,14,3081.7811446999985,,,,,,,,,,,,,,,,,,,,,,,3085.2157174999884,3087.560954899993,,,,3081.769858399988,3081.7752018666692,3081.7811446999985,3081.7811446999985,0.0051183999894419685,0.017295199999352917,3083.8252262999886,3085.2110894999932,right,0,3.418092300009448,None,space,3085.2251638000016,3085.2251638000016,2.3177990000112914,None,,,,,,,,20_L2,001,2025-04-30_13h10.02.276,LangExperimentstress,2024.2.4,60.01212244847201,2025-04-30 13h10.10.847257 -0400,
sounds/32d_pulsar.wav,CVC,Stressed,Mismatch,past,num_2,0.0,0.2,0.796440212673611,0.8294641710069439,0.99,1.097783832465277,101,40,41,42,43,44,0,0.596440212673611,0.629464171006944,0.79,0.897783832465277,32d_pulsar.wav,,d,,10,10,0,,,,,None,32,right,0,3.2534349000052316,None,,,,,,,0,10,10,24,3087.57747009999,,,,,,,,,,,,,,,,,,,,,,,3090.8477529999946,3090.847851300001,,,,3087.565367099989,3087.575497566668,3087.57747009999,3087.57747009999,0.004383200008305721,0.017784099996788427,3089.3918084999896,3090.844344699988,right,0,3.2534349000052316,None,None,,,,,,,,,,,,20_L2,001,2025-04-30_13h10.02.276,LangExperimentstress,2024.2.4,60.01212244847201,2025-04-30 13h10.10.847257 -0400,
sounds/03b_limpiar.wav,CVC,Unstressed,Mismatch,present,num_1,0.0,0.2,0.8500000000000001,0.932367621527777,1.26878515625,1.35808463541666,101,20,21,22,23,24,0,0.65,0.732367621527777,1.06878515625,1.15808463541666,03b_limpiar.wav,,b,,11,11,0,,,,,None,3,left,0,3.5095812999934424,None,,,,,,,0,11,11,4,3090.8650584999996,,,,,,,,,,,,,,,,,,,,,,,3094.381820900002,3094.3819071999897,,,,3090.8531502999977,3090.858542766659,3090.8650584999996,3090.8650584999996,0.005303700003423728,0.01811400000588037,3093.0088172999967,3094.377944299995,left,0,3.5095812999934424,None,None,,,,,,,,,,,,20_L2,001,2025-04-30_13h10.02.276,LangExperimentstress,2024.2.4,60.01212244847201,2025-04-30 13h10.10.847257 -0400,
sounds/18b_cumplir.wav,CVC,Unstressed,Mismatch,present,num_1,0.0,0.2,1.2408027271412,1.25568597366898,1.46256310040509,1.54144430700231,101,20,21,22,23,24,0,1.0408027271412,1.05568597366898,1.26256310040509,1.34144430700231,18b_cumplir.wav,,b,,12,12,0,,,,,None,18,right,0,4.0428028000023915,None,,,,,,,0,12,12,29,3094.397334299996,,,,,,,,,,,,,,,,,,,,,,,3098.4480452999996,3098.4481360999926,,,,3094.3872631999984,3094.39187216666,3094.397334299996,3094.397334299996,0.0053730999934487045,0.016282899989164434,3096.591727799998,3098.4447405999963,right,0,4.0428028000023915,None,None,,,,,,,,,,,,20_L2,001,2025-04-30_13h10.02.276,LangExperimentstress,2024.2.4,60.01212244847201,2025-04-30 13h10.10.847257 -0400,
sounds/11a_pegar.wav,CVC,Stressed,Match,present,num_1,0.0,0.2,0.8182808977343741,0.831294515585661,0.98,1.012063288108519,101,10,11,12,13,14,0,0.618280897734374,0.631294515585661,0.78,0.812063288108519,11a_pegar.wav,,a,,13,13,0,,,,,None,11,left,0,4.792090900009498,None,,,,,,,0,13,13,3,3098.46456339999,,,,,,,,,,,,,,,,,,,,,,,3103.265241000001,3103.2653263999964,,,,3098.4533405999973,3098.4586250666657,3098.46456339999,3098.46456339999,0.005208700007642619,0.01724370000010822,3100.4086420999956,3103.2615869,left,0,4.792090900009498,None,None,,,,,,,,,,,,20_L2,001,2025-04-30_13h10.02.276,LangExperimentstress,2024.2.4,60.01212244847201,2025-04-30 13h10.10.847257 -0400,
sounds/29a_pesar.wav,CVC,Stressed,Match,present,num_1,0.0,0.2,0.91328417532552,0.925531286730473,1.03,1.150619522602117,101,10,11,12,13,14,0,0.71328417532552,0.725531286730473,0.83,0.950619522602117,29a_pesar.wav,,a,,14,14,0,,,,,None,29,left,0,4.360084299987648,None,,,,,,,0,14,14,32,3103.279788300002,,,,,,,,,,,,,,,,,,,,,,,3107.648911199998,3107.649005200001,,,,3103.269859299995,3103.2756235666643,3103.279788300002,3103.279788300002,0.004542000009678304,0.015720700001111254,3105.1915746000013,3107.644862999994,left,0,4.360084299987648,None,None,,,,,,,,,,,,20_L2,001,2025-04-30_13h10.02.276,LangExperimentstress,2024.2.4,60.01212244847201,2025-04-30 13h10.10.847257 -0400,
sounds/39b_manchar.wav,CVC,Unstressed,Mismatch,present,num_1,0.0,0.2,0.81,0.91203755787037,1.140584317129629,1.2139708912037,101,20,21,22,23,24,0,0.61,0.71203755787037,0.940584317129629,1.0139708912037,39b_manchar.wav,,b,,15,15,0,,,,,None,39,left,0,5.741462899997714,None,,,,,,,0,15,15,7,3107.666119299989,,,,,,,,,,,,,,,,,,,,,,,3113.415837499997,3113.415913799996,,,,3107.654831199994,3107.6588985666644,3107.666119299989,3107.666119299989,0.005847599997650832,0.018177400008426048,3109.92487219999,3113.411639099999,left,0,5.741462899997714,None,None,,,,,,,,,,,,20_L2,001,2025-04-30_13h10.02.276,LangExperimentstress,2024.2.4,60.01212244847201,2025-04-30 13h10.10.847257 -0400,
sounds/34c_formar.wav,CVC,Unstressed,Match,past,num_2,0.0,0.2,0.876373676215277,0.992687651909722,1.14,1.26319767795138,101,30,31,32,33,34,0,0.676373676215277,0.792687651909722,0.94,1.06319767795138,34c_formar.wav,,c,,16,16,0,,,,,None,34,right,0,2.9998060000070836,None,,,,,,,0,16,16,2,3113.430819199988,,,,,,,,,,,,,,,,,,,,,,,3116.4493588999903,3116.4494531999953,,,,3113.420883599989,3113.4251828666643,3113.430819199988,3113.430819199988,0.004983599996194243,0.015731299994513392,3115.6752754999907,3116.4449957999896,right,0,2.9998060000070836,None,None,,,,,,,,,,,,20_L2,001,2025-04-30_13h10.02.276,LangExperimentstress,2024.2.4,60.01212244847201,2025-04-30 13h10.10.847257 -0400,
sounds/28d_parar.wav,CVC,Stressed,Mismatch,past,num_2,0.0,0.2,0.8458860026041659,0.862313736979166,1.018194683159722,1.032797113715277,101,40,41,42,43,44,0,0.645886002604166,0.662313736979166,0.818194683159722,0.832797113715277,28d_parar.wav,,d,,17,17,0,,,,,None,28,right,0,2.9986858000047505,None,,,,,,,0,17,17,18,3116.4651367999904,,,,,,,,,,,,,,,,,,,,,,,3119.4821028000006,3119.48218169999,,,,3116.454565799999,3116.4591180666653,3116.4651367999904,3116.4651367999904,0.005133999991812743,0.01647149999917019,3118.3920250999945,3119.4783735999954,right,0,2.9986858000047505,None,None,,,,,,,,,,,,20_L2,001,2025-04-30_13h10.02.276,LangExperimentstress,2024.2.4,60.01212244847201,2025-04-30 13h10.10.847257 -0400,
sounds/05a_fumar.wav,CVC,Stressed,Match,present,num_1,0.0,0.2,1.15,1.36712555700231,1.48,1.56308830295138,101,10,11,12,13,14,0,0.95,1.16712555700231,1.28,1.36308830295138,05a_fumar.wav,,a,,18,18,0,,,,,None,5,left,0,2.7662527000065893,None,,,,,,,0,18,18,38,3119.4970012999984,,,,,,,,,,,,,,,,,,,,,,,3122.28156589999,3122.2816487999953,,,,3119.487167200001,3119.4929183666577,3119.4970012999984,3119.4970012999984,0.005003099999157712,0.015513400008785538,3121.8583403999946,3122.277518499992,left,0,2.7662527000065893,None,None,,,,,,,,,,,,20_L2,001,2025-04-30_13h10.02.276,LangExperimentstress,2024.2.4,60.01212244847201,2025-04-30 13h10.10.847257 -0400,
sounds/40c_gastar.wav,CVC,Unstressed,Match,past,num_2,0.0,0.2,0.8300000000000001,0.8400000000000001,1.163436328125,1.183149609375,101,30,31,32,33,34,0,0.63,0.64,0.963436328125,0.983149609375,40c_gastar.wav,,c,,19,19,0,,,,,space,40,right,0,6.133814399989205,None,1.4201374000112992,None,,,,,0,19,19,0,3122.2978185999964,,,,,,,,,,,,,,,,,,,,,,,3128.4477972000022,3129.8942160000006,,,,3122.2868629000004,3122.291759666656,3122.2978185999964,3122.2978185999964,0.005225200002314523,0.01707200000237208,3124.40842729999,3128.4443742000003,right,0,6.133814399989205,None,space,3128.45830269999,3128.45830269999,1.4201374000112992,None,,,,,,,,20_L2,001,2025-04-30_13h10.02.276,LangExperimentstress,2024.2.4,60.01212244847201,2025-04-30 13h10.10.847257 -0400,
sounds/14b_borrar.wav,CVC,Unstressed,Mismatch,present,num_1,0.0,0.2,0.72,0.770187630208333,0.851961241319444,0.964399956597222,101,20,21,22,23,24,0,0.52,0.570187630208333,0.651961241319444,0.764399956597222,14b_borrar.wav,,b,,20,20,0,,,,,None,14,left,0,3.912870899992413,None,,,,,,,0,20,20,20,3129.910419599997,,,,,,,,,,,,,,,,,,,,,,,3133.8329404999968,3133.833036199998,,,,3129.8990764999908,3129.9084119666554,3129.910419599997,3129.910419599997,0.004823700000997633,0.017430599997169338,3131.8758499999967,3133.8287603999925,left,0,3.912870899992413,None,None,,,,,,,,,,,,20_L2,001,2025-04-30_13h10.02.276,LangExperimentstress,2024.2.4,60.01212244847201,2025-04-30 13h10.10.847257 -0400,
sounds/27c_tirar.wav,CVC,Unstressed,Match,past,num_2,0.0,0.2,0.8119442057291659,0.8307495153356481,0.9885306495949072,0.998621303530092,101,30,31,32,33,34,0,0.611944205729166,0.630749515335648,0.788530649594907,0.798621303530092,27c_tirar.wav,,c,,21,21,0,,,,,None,27,right,0,2.549425799996243,None,,,,,,,0,21,21,10,3133.8491146000015,,,,,,,,,,,,,,,,,,,,,,,3136.4149400000024,3136.415033799989,,,,3133.8384735,3133.842577366657,3133.8491146000015,3133.8491146000015,0.005438799998955801,0.016938399989157915,3135.8585994999885,3136.411055199991,right,0,2.549425799996243,None,None,,,,,,,,,,,,20_L2,001,2025-04-30_13h10.02.276,LangExperimentstress,2024.2.4,60.01212244847201,2025-04-30 13h10.10.847257 -0400,
sounds/10d_vender.wav,CVC,Stressed,Mismatch,past,num_2,0.0,0.2,0.832830209056713,0.8775468199411529,1.109501330306288,1.158928471023364,101,40,41,42,43,44,0,0.632830209056713,0.677546819941153,0.909501330306288,0.958928471023364,10d_vender.wav,,d,,22,22,0,,,,,None,10,right,0,3.624756500008516,None,,,,,,,0,22,22,12,3136.430536899992,,,,,,,,,,,,,,,,,,,,,,,3140.065319000001,3140.06544749999,,,,3136.4202757999883,3136.4252168666612,3136.430536899992,3136.430536899992,0.005257199998595752,0.01634600000397768,3138.341774699991,3140.061142599996,right,0,3.624756500008516,None,None,,,,,,,,,,,,20_L2,001,2025-04-30_13h10.02.276,LangExperimentstress,2024.2.4,60.01212244847201,2025-04-30 13h10.10.847257 -0400,
sounds/31d_tocar.wav,CVC,Stressed,Mismatch,past,num_2,0.0,0.2,0.8493931756807,0.8650112062639721,1.006860547391531,1.049162047334928,101,40,41,42,43,44,0,0.6493931756807,0.665011206263972,0.806860547391531,0.849162047334928,31d_tocar.wav,,d,,23,23,0,,,,,None,31,right,0,2.2781066999887116,None,,,,,,,0,23,23,30,3140.0821753999917,,,,,,,,,,,,,,,,,,,,,,,3142.3815877000015,3142.381709699999,,,,3140.0707092999946,3140.0750295666553,3140.0821753999917,3140.0821753999917,0.005233900010352954,0.017703800011076964,3141.9916871999885,3142.37760919999,right,0,2.2781066999887116,None,None,,,,,,,,,,,,20_L2,001,2025-04-30_13h10.02.276,LangExperimentstress,2024.2.4,60.01212244847201,2025-04-30 13h10.10.847257 -0400,
sounds/35b_secar.wav,CVC,Unstressed,Mismatch,present,num_1,0.0,0.2,0.8990044921875,1.025708658854166,1.179689416956018,1.20652606336805,101,20,21,22,23,24,0,0.6990044921875,0.825708658854166,0.979689416956018,1.00652606336805,35b_secar.wav,,b,,24,24,0,,,,,None,35,left,0,3.8971613999892725,None,,,,,,,0,24,24,5,3142.3972469,,,,,,,,,,,,,,,,,,,,,,,3146.3147638999944,3146.314851899995,,,,3142.3867200999957,3142.39202506666,3142.3972469,3142.3972469,0.005025399994337931,0.016434499993920326,3144.542029899996,3146.310896199997,left,0,3.8971613999892725,None,None,,,,,,,,,,,,20_L2,001,2025-04-30_13h10.02.276,LangExperimentstress,2024.2.4,60.01212244847201,2025-04-30 13h10.10.847257 -0400,
sounds/23a_tomar.wav,CVC,Stressed,Match,present,num_1,0.0,0.2,0.9453179615162032,0.95,1.08,1.158644495081018,101,10,11,12,13,14,0,0.745317961516203,0.75,0.88,0.958644495081018,23a_tomar.wav,,a,,25,25,0,,,,,None,23,left,0,2.748610299997381,None,,,,,,,0,25,25,39,3146.3301567000017,,,,,,,,,,,,,,,,,,,,,,,3149.0984450999968,3149.098542199994,,,,3146.31980859999,3146.3250669666636,3146.3301567000017,3146.3301567000017,0.004967900007613935,0.016180899998289533,3148.2419330999983,3149.094810399998,left,0,2.748610299997381,None,None,,,,,,,,,,,,20_L2,001,2025-04-30_13h10.02.276,LangExperimentstress,2024.2.4,60.01212244847201,2025-04-30 13h10.10.847257 -0400,
sounds/16a_llevar.wav,CVC,Stressed,Match,present,num_1,0.0,0.2,0.929084516317274,0.964936524692279,1.08,1.131864014418682,101,10,11,12,13,14,0,0.729084516317274,0.764936524692279,0.88,0.931864014418682,16a_llevar.wav,,a,,26,26,0,,,,,None,16,left,0,2.820665499995812,None,,,,,,,0,26,26,21,3149.1150036999898,,,,,,,,,,,,,,,,,,,,,,,3151.9489209999883,3151.949053199991,,,,3149.1041225999943,3149.1088398666657,3149.1150036999898,3149.1150036999898,0.005594699992798269,0.017573899996932596,3151.0084459999925,3151.9448422999994,left,0,2.820665499995812,None,None,,,,,,,,,,,,20_L2,001,2025-04-30_13h10.02.276,LangExperimentstress,2024.2.4,60.01212244847201,2025-04-30 13h10.10.847257 -0400,
sounds/33b_culpar.wav,CVC,Unstressed,Mismatch,present,num_1,0.0,0.2,0.8606178431336959,0.869103678029107,1.109891641372144,1.131540467434179,101,20,21,22,23,24,0,0.660617843133696,0.669103678029107,0.909891641372144,0.931540467434179,33b_culpar.wav,,b,,27,27,0,,,,,None,33,right,0,5.073579500007327,None,,,,,,,0,27,27,35,3151.9661890999996,,,,,,,,,,,,,,,,,,,,,,,3157.0482863999932,3157.0483808999998,,,,3151.954529399998,3151.958478066667,3151.9661890999996,3151.9661890999996,0.0055090000096242875,0.018028799997409806,3154.1422802000016,3157.044781999997,right,0,5.073579500007327,None,None,,,,,,,,,,,,20_L2,001,2025-04-30_13h10.02.276,LangExperimentstress,2024.2.4,60.01212244847201,2025-04-30 13h10.10.847257 -0400,
sounds/13c_montar.wav,CVC,Unstressed,Match,past,num_2,0.0,0.2,0.8800000000000001,0.98,1.24543012152777,1.2594709201388798,101,30,31,32,33,34,0,0.68,0.78,1.04543012152777,1.05947092013888,13c_montar.wav,,c,,28,28,0,,,,,None,13,right,0,3.407848800008651,None,,,,,,,0,28,28,33,3157.064211699995,,,,,,,,,,,,,,,,,,,,,,,3160.4826858000015,3160.4827765999944,,,,3157.053928299996,3157.0588581666566,3157.064211699995,3157.064211699995,0.005542899991269223,0.017007799993734807,3159.3749227999942,3160.478826999999,right,0,3.407848800008651,None,None,,,,,,,,,,,,20_L2,001,2025-04-30_13h10.02.276,LangExperimentstress,2024.2.4,60.01212244847201,2025-04-30 13h10.10.847257 -0400,
sounds/19a_marcar.wav,CVC,Stressed,Match,present,num_1,0.0,0.2,0.8400000000000001,0.97,1.245718359375,1.273519140625,101,10,11,12,13,14,0,0.64,0.77,1.045718359375,1.073519140625,19a_marcar.wav,,a,,29,29,0,,,,,space,19,left,0,2.844596199996886,None,1.0089824000024237,None,,,,,0,29,29,19,3160.4979827999923,,,,,,,,,,,,,,,,,,,,,,,3163.3483507999917,3164.378063899989,,,,3160.4875157999923,3160.492767166656,3160.4979827999923,3160.4979827999923,0.004744500009110197,0.016090700009954162,3162.4085453000007,3163.3445846999966,left,0,2.844596199996886,None,space,3163.358115199997,3163.358115199997,1.0089824000024237,None,,,,,,,,20_L2,001,2025-04-30_13h10.02.276,LangExperimentstress,2024.2.4,60.01212244847201,2025-04-30 13h10.10.847257 -0400,
sounds/24d_mirar.wav,CVC,Stressed,Mismatch,past,num_2,0.0,0.2,0.71,0.8119545789930551,0.9389863642939812,0.9746780743634248,101,40,41,42,43,44,0,0.51,0.611954578993055,0.738986364293981,0.774678074363425,24d_mirar.wav,,d,,30,30,0,,,,,None,24,right,0,2.6843630999937886,None,,,,,,,0,30,30,11,3164.3946155000012,,,,,,,,,,,,,,,,,,,,,,,3167.0984508999973,3167.0985437999916,,,,3164.383116699988,3164.391999566655,3164.3946155000012,3164.3946155000012,0.005025499995099381,0.017646599997533485,3166.091538599998,3167.0944537999894,right,0,2.6843630999937886,None,None,,,,,,,,,,,,20_L2,001,2025-04-30_13h10.02.276,LangExperimentstress,2024.2.4,60.01212244847201,2025-04-30 13h10.10.847257 -0400,
sounds/02c_buscar.wav,CVC,Unstressed,Match,past,num_2,0.0,0.2,0.8700000000000001,1.07,1.26,1.40703946035879,101,30,31,32,33,34,0,0.67,0.87,1.06,1.20703946035879,02c_buscar.wav,,c,,31,31,0,,,,,None,2,right,0,2.5791331000073114,None,,,,,,,0,31,31,34,3167.1153416000016,,,,,,,,,,,,,,,,,,,,,,,3169.7149950999883,3169.715086799988,,,,3167.103821500001,3167.1084524666553,3167.1153416000016,3167.1153416000016,0.005289499997161329,0.01769550000608433,3169.242305699998,3169.710864199995,right,0,2.5791331000073114,None,None,,,,,,,,,,,,20_L2,001,2025-04-30_13h10.02.276,LangExperimentstress,2024.2.4,60.01212244847201,2025-04-30 13h10.10.847257 -0400,
sounds/09c_cargar.wav,CVC,Unstressed,Match,past,num_2,0.0,0.2,0.81286744068287,0.8382251229745361,1.032634020543981,1.090594437210648,101,30,31,32,33,34,0,0.61286744068287,0.638225122974536,0.832634020543981,0.890594437210648,09c_cargar.wav,,c,,32,32,0,,,,,None,9,left,0,2.3011709000129486,None,,,,,,,0,32,32,28,3169.729727500002,,,,,,,,,,,,,,,,,,,,,,,3172.048877699999,3172.048969999989,,,,3169.719633899993,3169.7250674666616,3169.729727500002,3169.729727500002,0.0045529000053647906,0.015657100011594594,3171.6585472000006,3172.04434339999,left,0,2.3011709000129486,None,None,,,,,,,,,,,,20_L2,001,2025-04-30_13h10.02.276,LangExperimentstress,2024.2.4,60.01212244847201,2025-04-30 13h10.10.847257 -0400,
sounds/25b_ganar.wav,CVC,Unstressed,Mismatch,present,num_1,0.0,0.2,1.152097938368055,1.15990068760488,1.28904165650454,1.37272500435153,101,20,21,22,23,24,0,0.952097938368055,0.95990068760488,1.08904165650454,1.17272500435153,25b_ganar.wav,,b,,33,33,0,,,,,None,25,left,0,3.9739572999969823,None,,,,,,,0,33,33,8,3172.065909500001,,,,,,,,,,,,,,,,,,,,,,,3176.049127799997,3176.049224000002,,,,3172.0550401999935,3172.058641666667,3172.065909500001,3172.065909500001,0.006110399990575388,0.017835199992987327,3174.4083818999934,3176.0450337999937,left,0,3.9739572999969823,None,None,,,,,,,,,,,,20_L2,001,2025-04-30_13h10.02.276,LangExperimentstress,2024.2.4,60.01212244847201,2025-04-30 13h10.10.847257 -0400,
sounds/20c_cubrir.wav,CVC,Unstressed,Match,past,num_2,0.0,0.2,0.980138641742621,1.01,1.192436112212021,1.28412143493692,101,30,31,32,33,34,0,0.780138641742621,0.81,0.992436112212021,1.08412143493692,20c_cubrir.wav,,c,,34,34,0,,,,,None,20,right,0,3.383124799991492,None,,,,,,,0,34,34,31,3176.0646744999976,,,,,,,,,,,,,,,,,,,,,,,3179.4657057000004,3179.4657990999985,,,,3176.0542878999986,3176.059190866658,3176.0646744999976,3176.0646744999976,0.0050977000064449385,0.016429800001787953,3178.208770199999,3179.461374099992,right,0,3.383124799991492,None,None,,,,,,,,,,,,20_L2,001,2025-04-30_13h10.02.276,LangExperimentstress,2024.2.4,60.01212244847201,2025-04-30 13h10.10.847257 -0400,
sounds/12a_matar.wav,CVC,Stressed,Match,present,num_1,0.0,0.2,0.8400000000000001,0.96,1.17307472511574,1.186647497106481,101,10,11,12,13,14,0,0.64,0.76,0.97307472511574,0.986647497106481,12a_matar.wav,,a,,35,35,0,,,,,None,12,right,0,0.32465090000187047,None,,,,,,,0,35,35,25,3179.482835399991,,,,,,,,,,,,,,,,,,,,,,,3179.828607299991,3179.8287083999894,,,,3179.4715740999964,3179.475266666665,3179.482835399991,3179.482835399991,0.005789299990283325,0.01839089998975396,,3179.8117342999903,right,0,0.32465090000187047,None,None,,,,,,,,,,,,20_L2,001,2025-04-30_13h10.02.276,LangExperimentstress,2024.2.4,60.01212244847201,2025-04-30 13h10.10.847257 -0400,
sounds/15b_partir.wav,CVC,Unstressed,Mismatch,present,num_1,0.0,0.2,0.826865400752314,0.842973894883327,1.1042888772729471,1.120815958498066,101,20,21,22,23,24,0,0.626865400752314,0.642973894883327,0.904288877272947,0.920815958498066,15b_partir.wav,,b,,36,36,0,,,,,None,15,left,0,11.690061999994214,None,,,,,,,0,36,36,22,3179.845263700001,,,,,,,,,,,,,,,,,,,,,,,3191.5476456999895,3191.5477152999956,,,,3179.8338614999957,3179.8418931333226,3179.845263700001,3179.845263700001,0.005164000001968816,0.017622100000153296,3181.908280799995,3191.5440199000004,left,0,11.690061999994214,None,None,,,,,,,,,,,,20_L2,001,2025-04-30_13h10.02.276,LangExperimentstress,2024.2.4,60.01212244847201,2025-04-30 13h10.10.847257 -0400,
sounds/38b_pagar.wav,CVC,Unstressed,Mismatch,present,num_1,0.0,0.2,1.166737304687499,1.185271158854166,1.29521061197916,1.4055712890624898,101,20,21,22,23,24,0,0.966737304687499,0.985271158854166,1.09521061197916,1.20557128906249,38b_pagar.wav,,b,,37,37,0,,,,,None,38,left,0,3.77349539998977,None,,,,,,,0,37,37,17,3191.562559500002,,,,,,,,,,,,,,,,,,,,,,,3195.348451500002,3195.348539499988,,,,3191.552195199998,3191.5584741666576,3191.562559500002,3191.562559500002,0.004487600002903491,0.015722900003311224,3193.8083969,3195.3445525999996,left,0,3.77349539998977,None,None,,,,,,,,,,,,20_L2,001,2025-04-30_13h10.02.276,LangExperimentstress,2024.2.4,60.01212244847201,2025-04-30 13h10.10.847257 -0400,
sounds/08d_filtrar.wav,CVC,Stressed,Mismatch,past,num_2,0.0,0.2,0.7526856695589441,0.87808115762362,1.118901843962886,1.172598812485867,101,40,41,42,43,44,0,0.552685669558944,0.67808115762362,0.918901843962886,0.972598812485867,08d_filtrar.wav,,d,,38,38,0,,,,,None,8,right,0,3.2730840999865904,None,,,,,,,0,38,38,15,3195.365674200002,,,,,,,,,,,,,,,,,,,,,,,3198.649074599991,3198.6491678999882,,,,3195.3535283999954,3195.3585411666613,3195.365674200002,3195.365674200002,0.005011899993405677,0.01864360000763554,3197.1256632000004,3198.6449577999883,right,0,3.2730840999865904,None,None,,,,,,,,,,,,20_L2,001,2025-04-30_13h10.02.276,LangExperimentstress,2024.2.4,60.01212244847201,2025-04-30 13h10.10.847257 -0400,
sounds/04c_plantar.wav,CVC,Unstressed,Match,past,num_2,0.0,0.2,0.862877574458911,0.9343518689653568,1.20493812332404,1.21897569287037,101,30,31,32,33,34,0,0.662877574458911,0.734351868965357,1.00493812332404,1.01897569287037,04c_plantar.wav,,c,,39,39,0,,,,,None,4,right,0,4.006913700010045,None,,,,,,,0,39,39,9,3198.6653043999977,,,,,,,,,,,,,,,,,,,,,,,3202.682147499989,3202.6822418999946,,,,3198.654553200002,3198.6589817666577,3198.6653043999977,3198.6653043999977,0.0053985999984433874,0.017150800005765632,3200.7084743000014,3202.678233899991,right,0,4.006913700010045,None,None,,,,,,,,,,,,20_L2,001,2025-04-30_13h10.02.276,LangExperimentstress,2024.2.4,60.01212244847201,2025-04-30 13h10.10.847257 -0400,
,,,,,,,,,,,,,,,,,,,,,,,,,,,,,,,,,,,,,,,,,,,,,,,,,,,,,,,,,,,,,,,,,,,,,,,,,,,,,,,,,,,,,,,,,,,,,,,3202.6824846999953,3202.6916113999905,3202.6916113999905,3207.377956600001,space,4.674916300005862,None,20_L2,001,2025-04-30_13h10.02.276,LangExperimentstress,2024.2.4,60.01212244847201,2025-04-30 13h10.10.847257 -0400,
