sounds,syll,stress_unstress,suffix,present_past,corrAns,trigger_item,trigger_senonset,trigger_verbsonset,trigger_1_F0,trigger_suffix,trigger_2_F0,ID_item,ID_senonset,ID_verbonset,ID_1_F0,ID_suffix,ID_2_F0,ms_senonset,ms_verbonset,ms_1_F0,ms_suffix,ms_2_F0,file_name,sentence,cond,combo,thisN,thisTrialN,thisRepN,key_resp_4.keys,key_resp_4.corr,key_resp_4.rt,key_resp_4.duration,key_resp_5.keys,item_id,key_resp_2.keys,key_resp_2.corr,key_resp_2.rt,key_resp_2.duration,key_resp_5.rt,key_resp_5.duration,practice_trials.thisRepN,practice_trials.thisTrialN,practice_trials.thisN,practice_trials.thisIndex,experimental_trials.thisRepN,experimental_trials.thisTrialN,experimental_trials.thisN,experimental_trials.thisIndex,thisRow.t,notes,instructions.started,instr.started,key_resp.started,instructions.stopped,key_resp.keys,key_resp.rt,key_resp.duration,init_practice.started,init_practice.stopped,test_practice.started,test_sound_2.started,key_resp_4.started,polygon.started,serialPort_item_2.started,serialPort_item_2.stopped,test_sound_2.stopped,test_practice.stopped,practice_trials.key_resp_4.keys,practice_trials.key_resp_4.corr,practice_trials.key_resp_4.rt,practice_trials.key_resp_4.duration,takeabreak.started,takeabreak.stopped,practice_trials.key_resp_5.keys,init_trials.started,init_trials.stopped,test.started,test_sound.started,key_resp_2.started,polygon_2.started,serialPort_item.started,serialPort_item.stopped,test_sound.stopped,test.stopped,experimental_trials.key_resp_2.keys,experimental_trials.key_resp_2.corr,experimental_trials.key_resp_2.rt,experimental_trials.key_resp_2.duration,experimental_trials.key_resp_5.keys,text_3.started,key_resp_5.started,experimental_trials.key_resp_5.rt,experimental_trials.key_resp_5.duration,Thanks.started,text_2.started,key_resp_thanks.started,Thanks.stopped,key_resp_thanks.keys,key_resp_thanks.rt,key_resp_thanks.duration,participant,session,date,expName,psychopyVersion,frameRate,expStart,
,,,,,,,,,,,,,,,,,,,,,,,,,,,,,,,,,,,,,,,,,,,,,,,,,,,,0.002537099993787706,0.008682899991981685,0.008682899991981685,311.28754829999525,space,311.2666399000009,None,,,,,,,,,,,,,,,,,,,,,,,,,,,,,,,,,,,,,,,,,,,,22_L2,001,2025-04-30_17h07.30.187,LangExperimentstress,2024.2.4,60.114939765251734,2025-04-30 17h07.43.312146 -0400,
,,,,,,,,,,,,,,,,,,,,,,,,,,,,,,,,,,,,,,,,,,,,,,,,,,,,,,,,,,,311.28767989999324,311.28865639999276,,,,,,,,,,,,,,,,,,,,,,,,,,,,,,,,,,,,,,,,,,22_L2,001,2025-04-30_17h07.30.187,LangExperimentstress,2024.2.4,60.114939765251734,2025-04-30 17h07.43.312146 -0400,
sounds/p2b_cortar.wav,CVC,Unstressed,Mismatch,present,num_1,0.0,0.205513,0.8629519999999999,0.984841,1.219715,1.27,101,20,21,22,23,24,0.005513,0.662952,0.784841,1.019715,1.07,p2b_cortar.wav,p2,b,p2b,0,0,0,left,0,4.399456499988446,None,None,,,,,,,,0,0,0,1,,,,,311.3144123999955,,,,,,,,,,,311.30413269999553,311.3096585333192,311.3144123999955,311.3144123999955,0.015463899995665997,0.026381399991805665,313.5926907999965,315.72852779999084,left,0,4.399456499988446,None,315.73274129998754,315.73283189999347,None,,,,,,,,,,,,,,,,,,,,,,,,,,,22_L2,001,2025-04-30_17h07.30.187,LangExperimentstress,2024.2.4,60.114939765251734,2025-04-30 17h07.43.312146 -0400,
sounds/p3c_saltar.wav,CVC,Unstressed,Match,past,num_2,0.0,0.205513,0.8629519999999999,0.984841,1.219715,1.27,101,30,31,32,33,34,0.005513,0.662952,0.784841,1.019715,1.07,p3c_saltar.wav,p3,c,p3c,1,1,0,right,0,3.5899792999989586,None,None,,,,,,,,0,1,1,2,,,,,315.7485389999929,,,,,,,,,,,315.737951099989,315.74265476665846,315.7485389999929,315.7485389999929,0.005128000004333444,0.016581000003498048,317.8422431999934,319.3455802999961,right,0,3.5899792999989586,None,319.34991289999743,319.3500015999889,None,,,,,,,,,,,,,,,,,,,,,,,,,,,22_L2,001,2025-04-30_17h07.30.187,LangExperimentstress,2024.2.4,60.114939765251734,2025-04-30 17h07.43.312146 -0400,
sounds/p1a_saltar.wav,CVC,Stressed,Match,present,num_1,0.0,0.205513,0.8629519999999999,0.984841,1.219715,1.27,101,10,11,12,13,14,0.005513,0.662952,0.784841,1.019715,1.07,p1a_saltar.wav,p1,a,p1a,2,2,0,left,0,4.810283500002697,None,None,,,,,,,,0,2,2,0,,,,,319.3676480999857,,,,,,,,,,,319.3557114999858,319.35947006666197,319.3676480999857,319.3676480999857,0.005744599999161437,0.018839399999706075,321.60905439998896,324.1949416999996,left,0,4.810283500002697,None,324.1989922999928,324.1990805999958,None,,,,,,,,,,,,,,,,,,,,,,,,,,,22_L2,001,2025-04-30_17h07.30.187,LangExperimentstress,2024.2.4,60.114939765251734,2025-04-30 17h07.43.312146 -0400,
sounds/p4d_cortar.wav,CVC,Stressed,Mismatch,past,num_2,0.0,0.205513,0.8629519999999999,0.984841,1.219715,1.27,101,40,41,42,43,44,0.005513,0.662952,0.784841,1.019715,1.07,p4d_cortar.wav,p4,d,p4d,3,3,0,right,0,3.219193600001745,None,None,,,,,,,,0,3,3,3,,,,,324.21590129999095,,,,,,,,,,,324.20528899999044,324.20927406665965,324.21590129999095,324.21590129999095,0.006212500011315569,0.01774870000372175,326.7425302999909,327.4449285999872,right,0,3.219193600001745,None,327.4488613999856,327.4489620999957,None,,,,,,,,,,,,,,,,,,,,,,,,,,,22_L2,001,2025-04-30_17h07.30.187,LangExperimentstress,2024.2.4,60.114939765251734,2025-04-30 17h07.43.312146 -0400,
,,,,,,,,,,,,,,,,,,,,,,,,,,,,,,,,,,,,,,,,,,,,,,,,,,,,327.44921029999387,327.4590119999921,327.4590119999921,378.01174399998854,space,50.54409169999417,None,,,,,,,,,,,,,,,,,,,,,,,,,,,,,,,,,,,,,,,,,,,,22_L2,001,2025-04-30_17h07.30.187,LangExperimentstress,2024.2.4,60.114939765251734,2025-04-30 17h07.43.312146 -0400,
,,,,,,,,,,,,,,,,,,,,,,,,,,,,,,,,,,,,,,,,,,,,,,,,,,,,,,,,,,,,,,,,,,,,,,,,,,,,378.0118514999922,378.0127719999873,,,,,,,,,,,,,,,,,,,,,,,,,22_L2,001,2025-04-30_17h07.30.187,LangExperimentstress,2024.2.4,60.114939765251734,2025-04-30 17h07.43.312146 -0400,
sounds/07c_tumbar.wav,CVC,Unstressed,Match,past,num_2,0.0,0.2,0.9084024930273432,0.9247360728973012,1.143289673625005,1.154847989033482,101,30,31,32,33,34,0,0.708402493027343,0.724736072897301,0.943289673625005,0.954847989033482,07c_tumbar.wav,,c,,0,0,0,,,,,None,7,right,0,2.4084669000003487,None,,,,,,,0,0,0,6,378.04244829999516,,,,,,,,,,,,,,,,,,,,,,,380.4650357999926,380.4651152999868,,,,378.0314678999857,378.0425379333251,378.04244829999516,378.04244829999516,0.0186793999891961,0.03026309999404475,379.99227409999,380.4616462999984,right,0,2.4084669000003487,None,None,,,,,,,,,,,,22_L2,001,2025-04-30_17h07.30.187,LangExperimentstress,2024.2.4,60.114939765251734,2025-04-30 17h07.43.312146 -0400,
sounds/39b_manchar.wav,CVC,Unstressed,Mismatch,present,num_1,0.0,0.2,0.81,0.91203755787037,1.140584317129629,1.2139708912037,101,20,21,22,23,24,0,0.61,0.71203755787037,0.940584317129629,1.0139708912037,39b_manchar.wav,,b,,1,1,0,,,,,None,39,left,0,3.0086409999930765,None,,,,,,,0,1,1,7,380.4818181999872,,,,,,,,,,,,,,,,,,,,,,,383.50065849999373,383.50074589998985,,,,380.4701206999889,380.4759925666624,380.4818181999872,380.4818181999872,0.00501530000474304,0.017943400001968257,382.7423628999968,383.496063899991,left,0,3.0086409999930765,None,None,,,,,,,,,,,,22_L2,001,2025-04-30_17h07.30.187,LangExperimentstress,2024.2.4,60.114939765251734,2025-04-30 17h07.43.312146 -0400,
sounds/34c_formar.wav,CVC,Unstressed,Match,past,num_2,0.0,0.2,0.876373676215277,0.992687651909722,1.14,1.26319767795138,101,30,31,32,33,34,0,0.676373676215277,0.792687651909722,0.94,1.06319767795138,34c_formar.wav,,c,,2,2,0,,,,,None,34,right,0,2.52556259999983,None,,,,,,,0,2,2,2,383.51803039999504,,,,,,,,,,,,,,,,,,,,,,,386.0505342999968,386.0506239999959,,,,383.5063104999863,383.5095993666657,383.51803039999504,383.51803039999504,0.005579199991188943,0.01818099999218248,385.7593479999923,386.04641319999064,right,0,2.52556259999983,None,None,,,,,,,,,,,,22_L2,001,2025-04-30_17h07.30.187,LangExperimentstress,2024.2.4,60.114939765251734,2025-04-30 17h07.43.312146 -0400,
sounds/33b_culpar.wav,CVC,Unstressed,Mismatch,present,num_1,0.0,0.2,0.8606178431336959,0.869103678029107,1.109891641372144,1.131540467434179,101,20,21,22,23,24,0,0.660617843133696,0.669103678029107,0.909891641372144,0.931540467434179,33b_culpar.wav,,b,,3,3,0,,,,,None,33,left,0,2.4639777000120375,None,,,,,,,0,3,3,35,386.06767779999063,,,,,,,,,,,,,,,,,,,,,,,388.54919239999435,388.54927679999673,,,,386.05638939999335,386.05953526666076,386.06767779999063,386.06767779999063,0.005784300010418519,0.018252200010465458,388.2429759999941,388.5456004999869,left,0,2.4639777000120375,None,None,,,,,,,,,,,,22_L2,001,2025-04-30_17h07.30.187,LangExperimentstress,2024.2.4,60.114939765251734,2025-04-30 17h07.43.312146 -0400,
sounds/36c_bordar.wav,CVC,Unstressed,Match,past,num_2,0.0,0.2,1.0,1.078468243634259,1.3288624855324,1.3414992042824,101,30,31,32,33,34,0,0.8,0.878468243634259,1.1288624855324,1.1414992042824,36c_bordar.wav,,c,,4,4,0,,,,,None,36,right,0,2.6054140999913216,None,,,,,,,0,4,4,1,388.5650994999887,,,,,,,,,,,,,,,,,,,,,,,391.1827454999875,391.1828370999865,,,,388.5547654999973,388.5599044666635,388.5650994999887,388.5650994999887,0.005488000009790994,0.016654000006383285,390.8424066999869,391.17865359999996,right,0,2.6054140999913216,None,None,,,,,,,,,,,,22_L2,001,2025-04-30_17h07.30.187,LangExperimentstress,2024.2.4,60.114939765251734,2025-04-30 17h07.43.312146 -0400,
sounds/30a_fundar.wav,CVC,Stressed,Match,present,num_1,0.0,0.2,0.77,0.91,1.112685546875,1.12,101,10,11,12,13,14,0,0.57,0.71,0.912685546875,0.92,30a_fundar.wav,,a,,5,5,0,,,,,None,30,left,0,2.2666303000005428,None,,,,,,,0,5,5,36,391.1998564999958,,,,,,,,,,,,,,,,,,,,,,,393.4823921999923,393.48248009999224,,,,391.1883414999902,391.192720066658,391.1998564999958,391.1998564999958,0.005532099996344186,0.018060300004435703,393.3594552999857,393.4783177999925,left,0,2.2666303000005428,None,None,,,,,,,,,,,,22_L2,001,2025-04-30_17h07.30.187,LangExperimentstress,2024.2.4,60.114939765251734,2025-04-30 17h07.43.312146 -0400,
sounds/23a_tomar.wav,CVC,Stressed,Match,present,num_1,0.0,0.2,0.9453179615162032,0.95,1.08,1.158644495081018,101,10,11,12,13,14,0,0.745317961516203,0.75,0.88,0.958644495081018,23a_tomar.wav,,a,,6,6,0,,,,,None,23,left,0,2.624504399995203,None,,,,,,,0,6,6,39,393.4992249999923,,,,,,,,,,,,,,,,,,,,,,,396.1330625999981,396.1331580999977,,,,393.4875988999993,393.4924248666541,393.4992249999923,393.4992249999923,0.005128299992065877,0.01765779999550432,395.4094909999985,396.12883479999437,left,0,2.624504399995203,None,None,,,,,,,,,,,,22_L2,001,2025-04-30_17h07.30.187,LangExperimentstress,2024.2.4,60.114939765251734,2025-04-30 17h07.43.312146 -0400,
sounds/02c_buscar.wav,CVC,Unstressed,Match,past,num_2,0.0,0.2,0.8700000000000001,1.07,1.26,1.40703946035879,101,30,31,32,33,34,0,0.67,0.87,1.06,1.20703946035879,02c_buscar.wav,,c,,7,7,0,,,,,None,2,right,0,2.5011618999997154,None,,,,,,,0,7,7,34,396.14942819999123,,,,,,,,,,,,,,,,,,,,,,,398.66487339999003,398.66494819999207,,,,396.13854439998977,396.1427649666623,396.14942819999123,396.14942819999123,0.005408500001067296,0.017164400007459335,398.29237119999016,398.66204489998927,right,0,2.5011618999997154,None,None,,,,,,,,,,,,22_L2,001,2025-04-30_17h07.30.187,LangExperimentstress,2024.2.4,60.114939765251734,2025-04-30 17h07.43.312146 -0400,
sounds/14b_borrar.wav,CVC,Unstressed,Mismatch,present,num_1,0.0,0.2,0.72,0.770187630208333,0.851961241319444,0.964399956597222,101,20,21,22,23,24,0,0.52,0.570187630208333,0.651961241319444,0.764399956597222,14b_borrar.wav,,b,,8,8,0,,,,,None,14,left,0,2.7155138999951305,None,,,,,,,0,8,8,20,398.67858319998777,,,,,,,,,,,,,,,,,,,,,,,401.415694299998,401.41578449998633,,,,398.66885369998636,398.6762193666548,398.67858319998777,398.67858319998777,0.003910100000211969,0.014535599999362603,400.64261959999567,401.41166410000005,left,0,2.7155138999951305,None,None,,,,,,,,,,,,22_L2,001,2025-04-30_17h07.30.187,LangExperimentstress,2024.2.4,60.114939765251734,2025-04-30 17h07.43.312146 -0400,
sounds/28d_parar.wav,CVC,Stressed,Mismatch,past,num_2,0.0,0.2,0.8458860026041659,0.862313736979166,1.018194683159722,1.032797113715277,101,40,41,42,43,44,0,0.645886002604166,0.662313736979166,0.818194683159722,0.832797113715277,28d_parar.wav,,d,,9,9,0,,,,,space,28,right,0,2.1144861000066157,None,8.491215300004114,None,,,,,0,9,9,18,401.43231119999837,,,,,,,,,,,,,,,,,,,,,,,403.56456949999847,412.07862939999904,,,,401.42084199999226,401.4258454666599,401.43231119999837,401.43231119999837,0.005067400008556433,0.017476300010457635,403.3424956999952,403.5614146999869,right,0,2.1144861000066157,None,space,403.5754922999913,403.5754922999913,8.491215300004114,None,,,,,,,,22_L2,001,2025-04-30_17h07.30.187,LangExperimentstress,2024.2.4,60.114939765251734,2025-04-30 17h07.43.312146 -0400,
sounds/18b_cumplir.wav,CVC,Unstressed,Mismatch,present,num_1,0.0,0.2,1.2408027271412,1.25568597366898,1.46256310040509,1.54144430700231,101,20,21,22,23,24,0,1.0408027271412,1.05568597366898,1.26256310040509,1.34144430700231,18b_cumplir.wav,,b,,10,10,0,,,,,None,18,right,0,2.9158812000096077,None,,,,,,,0,10,10,29,412.0946755999903,,,,,,,,,,,,,,,,,,,,,,,415.02965309999126,415.02970469999127,,,,412.0844109999889,412.0928516666647,412.0946755999903,412.0946755999903,0.0057520999980624765,0.016845400008605793,414.2759401999938,415.0268211999937,right,0,2.9158812000096077,None,None,,,,,,,,,,,,22_L2,001,2025-04-30_17h07.30.187,LangExperimentstress,2024.2.4,60.114939765251734,2025-04-30 17h07.43.312146 -0400,
sounds/37b_pasar.wav,CVC,Unstressed,Mismatch,present,num_1,0.0,0.2,1.033132486979166,1.052087565104166,1.159499674479166,1.27702115885416,101,20,21,22,23,24,0,0.833132486979166,0.852087565104166,0.959499674479166,1.07702115885416,37b_pasar.wav,,b,,11,11,0,,,,,None,37,left,0,2.9025101000006543,None,,,,,,,0,11,11,23,415.0437644999911,,,,,,,,,,,,,,,,,,,,,,,417.9657720999967,417.96584819999407,,,,415.03291779999563,415.0418499666596,415.0437644999911,415.0437644999911,0.003224000000045635,0.014801600002101623,417.1592182999884,417.9621761999879,left,0,2.9025101000006543,None,None,,,,,,,,,,,,22_L2,001,2025-04-30_17h07.30.187,LangExperimentstress,2024.2.4,60.114939765251734,2025-04-30 17h07.43.312146 -0400,
sounds/13c_montar.wav,CVC,Unstressed,Match,past,num_2,0.0,0.2,0.8800000000000001,0.98,1.24543012152777,1.2594709201388798,101,30,31,32,33,34,0,0.68,0.78,1.04543012152777,1.05947092013888,13c_montar.wav,,c,,12,12,0,,,,,None,13,right,0,2.3727206000039587,None,,,,,,,0,12,12,33,417.98199009998643,,,,,,,,,,,,,,,,,,,,,,,420.3657719999901,420.3658637999906,,,,417.97062999999616,417.9763448666529,417.98199009998643,417.98199009998643,0.004787099998793565,0.016998799997963943,420.2758682999993,420.36206629998924,right,0,2.3727206000039587,None,None,,,,,,,,,,,,22_L2,001,2025-04-30_17h07.30.187,LangExperimentstress,2024.2.4,60.114939765251734,2025-04-30 17h07.43.312146 -0400,
sounds/25b_ganar.wav,CVC,Unstressed,Mismatch,present,num_1,0.0,0.2,1.152097938368055,1.15990068760488,1.28904165650454,1.37272500435153,101,20,21,22,23,24,0,0.952097938368055,0.95990068760488,1.08904165650454,1.17272500435153,25b_ganar.wav,,b,,13,13,0,,,,,None,25,left,0,2.627404099999694,None,,,,,,,0,13,13,8,420.38424969998596,,,,,,,,,,,,,,,,,,,,,,,423.0326086999994,423.0327498999977,,,,420.3722437999968,420.3760793666627,420.38424969998596,420.38424969998596,0.006404900006600656,0.01943990000290796,422.72603309999977,423.028610999987,left,0,2.627404099999694,None,None,,,,,,,,,,,,22_L2,001,2025-04-30_17h07.30.187,LangExperimentstress,2024.2.4,60.114939765251734,2025-04-30 17h07.43.312146 -0400,
sounds/03b_limpiar.wav,CVC,Unstressed,Mismatch,present,num_1,0.0,0.2,0.8500000000000001,0.932367621527777,1.26878515625,1.35808463541666,101,20,21,22,23,24,0,0.65,0.732367621527777,1.06878515625,1.15808463541666,03b_limpiar.wav,,b,,14,14,0,,,,,None,3,left,0,3.3854415000096196,None,,,,,,,0,14,14,4,423.048656199986,,,,,,,,,,,,,,,,,,,,,,,426.44949229998747,426.4495872999978,,,,423.03801279999607,423.0425969666578,423.048656199986,423.048656199986,0.005264700012048706,0.016681700013577938,425.1925573999906,426.44512649999524,left,0,3.3854415000096196,None,None,,,,,,,,,,,,22_L2,001,2025-04-30_17h07.30.187,LangExperimentstress,2024.2.4,60.114939765251734,2025-04-30 17h07.43.312146 -0400,
sounds/31d_tocar.wav,CVC,Stressed,Mismatch,past,num_2,0.0,0.2,0.8493931756807,0.8650112062639721,1.006860547391531,1.049162047334928,101,40,41,42,43,44,0,0.6493931756807,0.665011206263972,0.806860547391531,0.849162047334928,31d_tocar.wav,,d,,15,15,0,,,,,None,31,right,0,3.175209500011988,None,,,,,,,0,15,15,30,426.4669511999964,,,,,,,,,,,,,,,,,,,,,,,429.64988079998875,429.6499744999892,,,,426.454888999986,426.45927956665787,426.4669511999964,426.4669511999964,0.005315400005201809,0.018502000006265007,428.3762463999883,429.6456299999991,right,0,3.175209500011988,None,None,,,,,,,,,,,,22_L2,001,2025-04-30_17h07.30.187,LangExperimentstress,2024.2.4,60.114939765251734,2025-04-30 17h07.43.312146 -0400,
sounds/24d_mirar.wav,CVC,Stressed,Mismatch,past,num_2,0.0,0.2,0.71,0.8119545789930551,0.9389863642939812,0.9746780743634248,101,40,41,42,43,44,0,0.51,0.611954578993055,0.738986364293981,0.774678074363425,24d_mirar.wav,,d,,16,16,0,,,,,None,24,right,0,2.504091299997526,None,,,,,,,0,16,16,11,429.66701649999595,,,,,,,,,,,,,,,,,,,,,,,432.18155079999997,432.1816267999966,,,,429.6550619999907,429.6591086666633,429.66701649999595,429.66701649999595,0.005104099996970035,0.01797719999740366,431.3762010999926,432.1786237999913,right,0,2.504091299997526,None,None,,,,,,,,,,,,22_L2,001,2025-04-30_17h07.30.187,LangExperimentstress,2024.2.4,60.114939765251734,2025-04-30 17h07.43.312146 -0400,
sounds/16a_llevar.wav,CVC,Stressed,Match,present,num_1,0.0,0.2,0.929084516317274,0.964936524692279,1.08,1.131864014418682,101,10,11,12,13,14,0,0.729084516317274,0.764936524692279,0.88,0.931864014418682,16a_llevar.wav,,a,,17,17,0,,,,,None,16,left,0,2.9981272000004537,None,,,,,,,0,17,17,21,432.1962942999962,,,,,,,,,,,,,,,,,,,,,,,435.2167536999914,435.21684199999436,,,,432.18647649999184,432.19266856665877,432.1962942999962,432.1962942999962,0.004852600002777763,0.015436399989994243,434.1090467999893,435.212655899988,left,0,2.9981272000004537,None,None,,,,,,,,,,,,22_L2,001,2025-04-30_17h07.30.187,LangExperimentstress,2024.2.4,60.114939765251734,2025-04-30 17h07.43.312146 -0400,
sounds/17d_tragar.wav,CVC,Stressed,Mismatch,past,num_2,0.0,0.2,1.070609360532407,1.117973654513888,1.30915316840277,1.35458539534397,101,40,41,42,43,44,0,0.870609360532407,0.917973654513888,1.10915316840277,1.15458539534397,17d_tragar.wav,,d,,18,18,0,,,,,None,17,right,0,2.417465699996683,None,,,,,,,0,18,18,26,435.23322399999597,,,,,,,,,,,,,,,,,,,,,,,437.6614363999979,437.6614731999871,,,,435.22308719999273,435.2267873666608,435.23322399999597,435.23322399999597,0.006258599998545833,0.017145400008303113,437.54274779999105,437.6597635999933,right,0,2.417465699996683,None,None,,,,,,,,,,,,22_L2,001,2025-04-30_17h07.30.187,LangExperimentstress,2024.2.4,60.114939765251734,2025-04-30 17h07.43.312146 -0400,
sounds/11a_pegar.wav,CVC,Stressed,Match,present,num_1,0.0,0.2,0.8182808977343741,0.831294515585661,0.98,1.012063288108519,101,10,11,12,13,14,0,0.618280897734374,0.631294515585661,0.78,0.812063288108519,11a_pegar.wav,,a,,19,19,0,,,,,space,11,left,0,3.1821429999981774,None,11.054814699993585,None,,,,,0,19,19,3,437.67679709999356,,,,,,,,,,,,,,,,,,,,,,,440.86628629999177,451.94580079999287,,,,437.6633441999875,437.67518426666015,437.67679709999356,437.67679709999356,0.001879099989309907,0.015925199986668304,439.60971319999953,440.8620324999938,left,0,3.1821429999981774,None,space,440.87581859999045,440.87581859999045,11.054814699993585,None,,,,,,,,22_L2,001,2025-04-30_17h07.30.187,LangExperimentstress,2024.2.4,60.114939765251734,2025-04-30 17h07.43.312146 -0400,
sounds/10d_vender.wav,CVC,Stressed,Mismatch,past,num_2,0.0,0.2,0.832830209056713,0.8775468199411529,1.109501330306288,1.158928471023364,101,40,41,42,43,44,0,0.632830209056713,0.677546819941153,0.909501330306288,0.958928471023364,10d_vender.wav,,d,,20,20,0,,,,,None,10,right,0,2.0162533999973675,None,,,,,,,0,20,20,12,451.96181499998784,,,,,,,,,,,,,,,,,,,,,,,453.99942739999096,453.9995146999863,,,,451.95080049999524,451.95994476665896,451.96181499998784,451.96181499998784,0.004965300002368167,0.016815099996165372,453.8588430999953,453.99531359999673,right,0,2.0162533999973675,None,None,,,,,,,,,,,,22_L2,001,2025-04-30_17h07.30.187,LangExperimentstress,2024.2.4,60.114939765251734,2025-04-30 17h07.43.312146 -0400,
sounds/01d_salvar.wav,CVC,Stressed,Mismatch,past,num_2,0.0,0.2,0.8500000000000001,0.996069502314814,1.23,1.29,101,40,41,42,43,44,0,0.65,0.796069502314814,1.03,1.09,01d_salvar.wav,,d,,21,21,0,,,,,None,1,right,0,2.299961799988523,None,,,,,,,0,21,21,37,454.0148191999906,,,,,,,,,,,,,,,,,,,,,,,456.33193679999385,456.33201949999784,,,,454.0047084999969,454.0094498666624,454.0148191999906,454.0148191999906,0.005198800005018711,0.01622450001013931,456.07585839999956,456.3287558999873,right,0,2.299961799988523,None,None,,,,,,,,,,,,22_L2,001,2025-04-30_17h07.30.187,LangExperimentstress,2024.2.4,60.114939765251734,2025-04-30 17h07.43.312146 -0400,
sounds/12a_matar.wav,CVC,Stressed,Match,present,num_1,0.0,0.2,0.8400000000000001,0.96,1.17307472511574,1.186647497106481,101,10,11,12,13,14,0,0.64,0.76,0.97307472511574,0.986647497106481,12a_matar.wav,,a,,22,22,0,,,,,None,12,left,0,2.7777127000008477,None,,,,,,,0,22,22,25,456.34647259999474,,,,,,,,,,,,,,,,,,,,,,,459.12950609999825,459.12954479998734,,,,456.3371633999923,456.3428797666604,456.34647259999474,456.34647259999474,0.005140399996889755,0.01538789999904111,458.54249100000015,459.1268840999983,left,0,2.7777127000008477,None,None,,,,,,,,,,,,22_L2,001,2025-04-30_17h07.30.187,LangExperimentstress,2024.2.4,60.114939765251734,2025-04-30 17h07.43.312146 -0400,
sounds/09c_cargar.wav,CVC,Unstressed,Match,past,num_2,0.0,0.2,0.81286744068287,0.8382251229745361,1.032634020543981,1.090594437210648,101,30,31,32,33,34,0,0.61286744068287,0.638225122974536,0.832634020543981,0.890594437210648,09c_cargar.wav,,c,,23,23,0,,,,,None,9,right,0,3.204457600004389,None,,,,,,,0,23,23,28,459.14291599999706,,,,,,,,,,,,,,,,,,,,,,,462.36614429998735,462.3662611999898,,,,459.13204929999483,459.1422856666652,459.14291599999706,459.14291599999706,0.0025133000017376617,0.01406870000937488,461.07616899999266,462.3618112999975,right,0,3.204457600004389,None,None,,,,,,,,,,,,22_L2,001,2025-04-30_17h07.30.187,LangExperimentstress,2024.2.4,60.114939765251734,2025-04-30 17h07.43.312146 -0400,
sounds/04c_plantar.wav,CVC,Unstressed,Match,past,num_2,0.0,0.2,0.862877574458911,0.9343518689653568,1.20493812332404,1.21897569287037,101,30,31,32,33,34,0,0.662877574458911,0.734351868965357,1.00493812332404,1.01897569287037,04c_plantar.wav,,c,,24,24,0,,,,,None,4,right,0,2.3158884000004036,None,,,,,,,0,24,24,9,462.3825574999937,,,,,,,,,,,,,,,,,,,,,,,464.71431939999457,464.71439379999356,,,,462.37192319998576,462.37594436665336,462.3825574999937,462.3825574999937,0.005666299999575131,0.01720279999426566,464.42575199999555,464.71100399999705,right,0,2.3158884000004036,None,None,,,,,,,,,,,,22_L2,001,2025-04-30_17h07.30.187,LangExperimentstress,2024.2.4,60.114939765251734,2025-04-30 17h07.43.312146 -0400,
sounds/40c_gastar.wav,CVC,Unstressed,Match,past,num_2,0.0,0.2,0.8300000000000001,0.8400000000000001,1.163436328125,1.183149609375,101,30,31,32,33,34,0,0.63,0.64,0.963436328125,0.983149609375,40c_gastar.wav,,c,,25,25,0,,,,,None,40,right,0,2.3146470000065165,None,,,,,,,0,25,25,0,464.7284623999876,,,,,,,,,,,,,,,,,,,,,,,467.04966639999475,467.049755199987,,,,464.71873909998976,464.72566506665703,464.7284623999876,464.7284623999876,0.004347999987658113,0.014885899989167228,466.84250109999266,467.0457107999973,right,0,2.3146470000065165,None,None,,,,,,,,,,,,22_L2,001,2025-04-30_17h07.30.187,LangExperimentstress,2024.2.4,60.114939765251734,2025-04-30 17h07.43.312146 -0400,
sounds/35b_secar.wav,CVC,Unstressed,Mismatch,present,num_1,0.0,0.2,0.8990044921875,1.025708658854166,1.179689416956018,1.20652606336805,101,20,21,22,23,24,0,0.6990044921875,0.825708658854166,0.979689416956018,1.00652606336805,35b_secar.wav,,b,,26,26,0,,,,,None,35,right,0,3.872441699990304,None,,,,,,,0,26,26,5,467.06693149999774,,,,,,,,,,,,,,,,,,,,,,,470.94821659999434,470.94830599999113,,,,467.05588129999524,467.0591181666571,467.06693149999774,467.06693149999774,0.006109599999035709,0.018104899994796142,469.20934449999186,470.9451151999965,right,0,3.872441699990304,None,None,,,,,,,,,,,,22_L2,001,2025-04-30_17h07.30.187,LangExperimentstress,2024.2.4,60.114939765251734,2025-04-30 17h07.43.312146 -0400,
sounds/27c_tirar.wav,CVC,Unstressed,Match,past,num_2,0.0,0.2,0.8119442057291659,0.8307495153356481,0.9885306495949072,0.998621303530092,101,30,31,32,33,34,0,0.611944205729166,0.630749515335648,0.788530649594907,0.798621303530092,27c_tirar.wav,,c,,27,27,0,,,,,None,27,right,0,2.324837500011199,None,,,,,,,0,27,27,10,470.96504759999516,,,,,,,,,,,,,,,,,,,,,,,473.2991476999887,473.2992383999954,,,,470.95335969999724,470.9592245666611,470.96504759999516,470.96504759999516,0.0050651000055950135,0.017540400003781542,472.97631829998863,473.2951569999859,right,0,2.324837500011199,None,None,,,,,,,,,,,,22_L2,001,2025-04-30_17h07.30.187,LangExperimentstress,2024.2.4,60.114939765251734,2025-04-30 17h07.43.312146 -0400,
sounds/15b_partir.wav,CVC,Unstressed,Mismatch,present,num_1,0.0,0.2,0.826865400752314,0.842973894883327,1.1042888772729471,1.120815958498066,101,20,21,22,23,24,0,0.626865400752314,0.642973894883327,0.904288877272947,0.920815958498066,15b_partir.wav,,b,,28,28,0,,,,,None,15,right,0,2.775970700007747,None,,,,,,,0,28,28,22,473.31459429999813,,,,,,,,,,,,,,,,,,,,,,,476.10035579999385,476.10044399999606,,,,473.30467809998663,473.30935936666015,473.31459429999813,473.31459429999813,0.005440599998109974,0.01623380000819452,475.39245149999624,476.096235399993,right,0,2.775970700007747,None,None,,,,,,,,,,,,22_L2,001,2025-04-30_17h07.30.187,LangExperimentstress,2024.2.4,60.114939765251734,2025-04-30 17h07.43.312146 -0400,
sounds/19a_marcar.wav,CVC,Stressed,Match,present,num_1,0.0,0.2,0.8400000000000001,0.97,1.245718359375,1.273519140625,101,10,11,12,13,14,0,0.64,0.77,1.045718359375,1.073519140625,19a_marcar.wav,,a,,29,29,0,,,,,space,19,left,0,3.173967199996696,None,11.957165200001327,None,,,,,0,29,29,19,476.11783379998815,,,,,,,,,,,,,,,,,,,,,,,479.29969229998824,491.27824699999474,,,,476.1056060999981,476.1100838666646,476.11783379998815,476.11783379998815,0.005173300000024028,0.01835360001132358,478.0262565999874,479.2957635999919,left,0,3.173967199996696,None,space,479.3091749999876,479.3091749999876,11.957165200001327,None,,,,,,,,22_L2,001,2025-04-30_17h07.30.187,LangExperimentstress,2024.2.4,60.114939765251734,2025-04-30 17h07.43.312146 -0400,
sounds/06d_soplar.wav,CVC,Stressed,Mismatch,past,num_2,0.0,0.2,0.761291666666666,0.8899999999999999,1.102139687590422,1.166665581687644,101,40,41,42,43,44,0,0.561291666666666,0.69,0.902139687590422,0.966665581687644,06d_soplar.wav,,d,,30,30,0,,,,,None,6,right,0,2.1001926000026288,None,,,,,,,0,30,30,16,491.2942583999975,,,,,,,,,,,,,,,,,,,,,,,493.41572439999436,493.41581579999183,,,,491.28277319998597,491.29257656666255,491.2942583999975,491.2942583999975,0.004496100009419024,0.016849899999215268,493.1756122999941,493.4117108999926,right,0,2.1001926000026288,None,None,,,,,,,,,,,,22_L2,001,2025-04-30_17h07.30.187,LangExperimentstress,2024.2.4,60.114939765251734,2025-04-30 17h07.43.312146 -0400,
sounds/05a_fumar.wav,CVC,Stressed,Match,present,num_1,0.0,0.2,1.15,1.36712555700231,1.48,1.56308830295138,101,10,11,12,13,14,0,0.95,1.16712555700231,1.28,1.36308830295138,05a_fumar.wav,,a,,31,31,0,,,,,None,5,left,0,3.0997667999909027,None,,,,,,,0,31,31,38,493.4313892999926,,,,,,,,,,,,,,,,,,,,,,,496.5495988999901,496.5496850999916,,,,493.42133929999545,493.42593546666126,493.4313892999926,493.4313892999926,0.0055262999958358705,0.01632209999661427,495.7922730999999,496.5452552999923,left,0,3.0997667999909027,None,None,,,,,,,,,,,,22_L2,001,2025-04-30_17h07.30.187,LangExperimentstress,2024.2.4,60.114939765251734,2025-04-30 17h07.43.312146 -0400,
sounds/26a_bajar.wav,CVC,Stressed,Match,present,num_1,0.0,0.2,0.77,0.8999999999999999,1.03,1.171181705729166,101,10,11,12,13,14,0,0.57,0.7,0.83,0.971181705729166,26a_bajar.wav,,a,,32,32,0,,,,,None,26,left,0,2.6202398000023095,None,,,,,,,0,32,32,13,496.56716959999176,,,,,,,,,,,,,,,,,,,,,,,499.19886569998926,499.1989489999978,,,,496.555214299995,496.5592687666542,496.56716959999176,496.56716959999176,0.00555750000057742,0.018500999998650514,498.642649299989,499.1948272999871,left,0,2.6202398000023095,None,None,,,,,,,,,,,,22_L2,001,2025-04-30_17h07.30.187,LangExperimentstress,2024.2.4,60.114939765251734,2025-04-30 17h07.43.312146 -0400,
sounds/29a_pesar.wav,CVC,Stressed,Match,present,num_1,0.0,0.2,0.91328417532552,0.925531286730473,1.03,1.150619522602117,101,10,11,12,13,14,0,0.71328417532552,0.725531286730473,0.83,0.950619522602117,29a_pesar.wav,,a,,33,33,0,,,,,None,29,left,0,2.5394554999948014,None,,,,,,,0,33,33,32,499.2154573999869,,,,,,,,,,,,,,,,,,,,,,,501.7656028999918,501.7657787999924,,,,499.2036422999954,499.2090909666624,499.2154573999869,499.2154573999869,0.0046996999881230295,0.017495799998869188,501.1255586999905,501.7617351999943,left,0,2.5394554999948014,None,None,,,,,,,,,,,,22_L2,001,2025-04-30_17h07.30.187,LangExperimentstress,2024.2.4,60.114939765251734,2025-04-30 17h07.43.312146 -0400,
sounds/38b_pagar.wav,CVC,Unstressed,Mismatch,present,num_1,0.0,0.2,1.166737304687499,1.185271158854166,1.29521061197916,1.4055712890624898,101,20,21,22,23,24,0,0.966737304687499,0.985271158854166,1.09521061197916,1.20557128906249,38b_pagar.wav,,b,,34,34,0,,,,,None,38,left,0,3.364523600001121,None,,,,,,,0,34,34,17,501.7819687999872,,,,,,,,,,,,,,,,,,,,,,,505.16700749998563,505.16709739998623,,,,501.77132159999746,501.7756937666602,501.7819687999872,501.7819687999872,0.00553310000395868,0.01710070000262931,504.0427792999981,505.16251559999364,left,0,3.364523600001121,None,None,,,,,,,,,,,,22_L2,001,2025-04-30_17h07.30.187,LangExperimentstress,2024.2.4,60.114939765251734,2025-04-30 17h07.43.312146 -0400,
sounds/08d_filtrar.wav,CVC,Stressed,Mismatch,past,num_2,0.0,0.2,0.7526856695589441,0.87808115762362,1.118901843962886,1.172598812485867,101,40,41,42,43,44,0,0.552685669558944,0.67808115762362,0.918901843962886,0.972598812485867,08d_filtrar.wav,,d,,35,35,0,,,,,None,8,left,0,2.5652040999993915,None,,,,,,,0,35,35,15,505.18237319999025,,,,,,,,,,,,,,,,,,,,,,,507.7663526999968,507.7664425999974,,,,505.1718496999965,505.1766841666579,505.18237319999025,505.18237319999025,0.00489890000608284,0.016232800000580028,506.9426820999943,507.7621911999886,left,0,2.5652040999993915,None,None,,,,,,,,,,,,22_L2,001,2025-04-30_17h07.30.187,LangExperimentstress,2024.2.4,60.114939765251734,2025-04-30 17h07.43.312146 -0400,
sounds/21a_mezclar.wav,CVC,Stressed,Match,present,num_1,0.0,0.2,0.78,0.9121902777777772,1.20214212962962,1.27,101,10,11,12,13,14,0,0.58,0.712190277777777,1.00214212962962,1.07,21a_mezclar.wav,,a,,36,36,0,,,,,None,21,left,0,3.067984300010721,None,,,,,,,0,36,36,27,507.7825656999921,,,,,,,,,,,,,,,,,,,,,,,510.8659122999961,510.86600109998835,,,,507.77175879999413,507.7763511666601,507.7825656999921,507.7825656999921,0.00532039999961853,0.01704310000059195,509.8091706999985,510.86189529999683,left,0,3.067984300010721,None,None,,,,,,,,,,,,22_L2,001,2025-04-30_17h07.30.187,LangExperimentstress,2024.2.4,60.114939765251734,2025-04-30 17h07.43.312146 -0400,
sounds/32d_pulsar.wav,CVC,Stressed,Mismatch,past,num_2,0.0,0.2,0.796440212673611,0.8294641710069439,0.99,1.097783832465277,101,40,41,42,43,44,0,0.596440212673611,0.629464171006944,0.79,0.897783832465277,32d_pulsar.wav,,d,,37,37,0,,,,,None,32,right,0,2.289528400011477,None,,,,,,,0,37,37,24,510.88170209999953,,,,,,,,,,,,,,,,,,,,,,,513.1826164999948,513.1827124999982,,,,510.87077099998714,510.87616806665415,510.88170209999953,510.88170209999953,0.004773299995576963,0.01660719999927096,512.6926141999866,513.1785682999907,right,0,2.289528400011477,None,None,,,,,,,,,,,,22_L2,001,2025-04-30_17h07.30.187,LangExperimentstress,2024.2.4,60.114939765251734,2025-04-30 17h07.43.312146 -0400,
sounds/22d_dejar.wav,CVC,Stressed,Mismatch,past,num_2,0.0,0.2,0.8500000000000001,1.02,1.152543366608796,1.28794346788194,101,40,41,42,43,44,0,0.65,0.82,0.952543366608796,1.08794346788194,22d_dejar.wav,,d,,38,38,0,,,,,None,22,right,0,3.2123846000031335,None,,,,,,,0,38,38,14,513.1976686999988,,,,,,,,,,,,,,,,,,,,,,,516.4165718999866,516.4166623999918,,,,513.1879199999967,513.192627466666,513.1976686999988,513.1976686999988,0.005201499996474013,0.015873299998929724,515.2424813999969,516.4123555999977,right,0,3.2123846000031335,None,None,,,,,,,,,,,,22_L2,001,2025-04-30_17h07.30.187,LangExperimentstress,2024.2.4,60.114939765251734,2025-04-30 17h07.43.312146 -0400,
sounds/20c_cubrir.wav,CVC,Unstressed,Match,past,num_2,0.0,0.2,0.980138641742621,1.01,1.192436112212021,1.28412143493692,101,30,31,32,33,34,0,0.780138641742621,0.81,0.992436112212021,1.08412143493692,20c_cubrir.wav,,c,,39,39,0,,,,,None,20,right,0,2.6093370000016876,None,,,,,,,0,39,39,31,516.4328468999884,,,,,,,,,,,,,,,,,,,,,,,519.0493393999932,519.049417599992,,,,516.4221637999872,516.4259853666629,516.4328468999884,516.4328468999884,0.005557700002100319,0.01702429998840671,518.5591832999926,519.0453099999868,right,0,2.6093370000016876,None,None,,,,,,,,,,,,22_L2,001,2025-04-30_17h07.30.187,LangExperimentstress,2024.2.4,60.114939765251734,2025-04-30 17h07.43.312146 -0400,
,,,,,,,,,,,,,,,,,,,,,,,,,,,,,,,,,,,,,,,,,,,,,,,,,,,,,,,,,,,,,,,,,,,,,,,,,,,,,,,,,,,,,,,,,,,,,,,519.0496236999898,519.0593887999858,519.0593887999858,527.2286481999909,space,8.158665499999188,None,22_L2,001,2025-04-30_17h07.30.187,LangExperimentstress,2024.2.4,60.114939765251734,2025-04-30 17h07.43.312146 -0400,
