sounds,syll,stress_unstress,suffix,present_past,corrAns,trigger_item,trigger_senonset,trigger_verbsonset,trigger_1_F0,trigger_suffix,trigger_2_F0,ID_item,ID_senonset,ID_verbonset,ID_1_F0,ID_suffix,ID_2_F0,ms_senonset,ms_verbonset,ms_1_F0,ms_suffix,ms_2_F0,file_name,sentence,cond,combo,thisN,thisTrialN,thisRepN,key_resp_4.keys,key_resp_4.corr,key_resp_4.rt,key_resp_4.duration,key_resp_5.keys,item_id,key_resp_2.keys,key_resp_2.corr,key_resp_2.rt,key_resp_2.duration,key_resp_5.rt,key_resp_5.duration,practice_trials.thisRepN,practice_trials.thisTrialN,practice_trials.thisN,practice_trials.thisIndex,experimental_trials.thisRepN,experimental_trials.thisTrialN,experimental_trials.thisN,experimental_trials.thisIndex,thisRow.t,notes,instructions.started,instr.started,key_resp.started,instructions.stopped,key_resp.keys,key_resp.rt,key_resp.duration,init_practice.started,init_practice.stopped,test_practice.started,test_sound_2.started,key_resp_4.started,polygon.started,serialPort_item_2.started,serialPort_item_2.stopped,test_sound_2.stopped,test_practice.stopped,practice_trials.key_resp_4.keys,practice_trials.key_resp_4.corr,practice_trials.key_resp_4.rt,practice_trials.key_resp_4.duration,takeabreak.started,takeabreak.stopped,practice_trials.key_resp_5.keys,init_trials.started,init_trials.stopped,test.started,test_sound.started,key_resp_2.started,polygon_2.started,serialPort_item.started,serialPort_item.stopped,test_sound.stopped,test.stopped,experimental_trials.key_resp_2.keys,experimental_trials.key_resp_2.corr,experimental_trials.key_resp_2.rt,experimental_trials.key_resp_2.duration,experimental_trials.key_resp_5.keys,text_3.started,key_resp_5.started,experimental_trials.key_resp_5.rt,experimental_trials.key_resp_5.duration,Thanks.started,text_2.started,key_resp_thanks.started,Thanks.stopped,key_resp_thanks.keys,key_resp_thanks.rt,key_resp_thanks.duration,participant,session,date,expName,psychopyVersion,frameRate,expStart,
,,,,,,,,,,,,,,,,,,,,,,,,,,,,,,,,,,,,,,,,,,,,,,,,,,,,0.0030540000007022172,0.020759799983352423,0.020759799983352423,3477.2446800000034,space,3477.2113319000055,None,,,,,,,,,,,,,,,,,,,,,,,,,,,,,,,,,,,,,,,,,,,,26_L2,001,2025-05-01_14h21.46.826,LangExperimentstress,2024.2.4,60.00934945098976,2025-05-01 14h22.03.814125 -0400,
,,,,,,,,,,,,,,,,,,,,,,,,,,,,,,,,,,,,,,,,,,,,,,,,,,,,,,,,,,,3477.2447716000024,3477.2454690999875,,,,,,,,,,,,,,,,,,,,,,,,,,,,,,,,,,,,,,,,,,26_L2,001,2025-05-01_14h21.46.826,LangExperimentstress,2024.2.4,60.00934945098976,2025-05-01 14h22.03.814125 -0400,
sounds/p1a_saltar.wav,CVC,Stressed,Match,present,num_1,0.0,0.205513,0.8629519999999999,0.984841,1.219715,1.27,101,10,11,12,13,14,0.005513,0.662952,0.784841,1.019715,1.07,p1a_saltar.wav,p1,a,p1a,0,0,0,right,0,7.638104599987855,None,None,,,,,,,,0,0,0,0,,,,,3477.2662755000056,,,,,,,,,,,3477.25658679998,3477.268222233318,3477.2662755000056,3477.2662755000056,0.011124300013761967,0.021461800002725795,3479.5175632000028,3484.920469799981,right,0,7.638104599987855,None,3484.9245256999857,3484.924634199997,None,,,,,,,,,,,,,,,,,,,,,,,,,,,26_L2,001,2025-05-01_14h21.46.826,LangExperimentstress,2024.2.4,60.00934945098976,2025-05-01 14h22.03.814125 -0400,
sounds/p4d_cortar.wav,CVC,Stressed,Mismatch,past,num_2,0.0,0.205513,0.8629519999999999,0.984841,1.219715,1.27,101,40,41,42,43,44,0.005513,0.662952,0.784841,1.019715,1.07,p4d_cortar.wav,p4,d,p4d,1,1,0,right,0,4.562657000002218,None,None,,,,,,,,0,1,1,3,,,,,3484.941679999989,,,,,,,,,,,3484.930842699978,3484.934279466663,3484.941679999989,3484.941679999989,0.006243199983146042,0.01783850000356324,3487.451074199984,3489.5202375999943,right,0,4.562657000002218,None,3489.5244792999874,3489.5245715999918,None,,,,,,,,,,,,,,,,,,,,,,,,,,,26_L2,001,2025-05-01_14h21.46.826,LangExperimentstress,2024.2.4,60.00934945098976,2025-05-01 14h22.03.814125 -0400,
sounds/p3c_saltar.wav,CVC,Unstressed,Match,past,num_2,0.0,0.205513,0.8629519999999999,0.984841,1.219715,1.27,101,30,31,32,33,34,0.005513,0.662952,0.784841,1.019715,1.07,p3c_saltar.wav,p3,c,p3c,2,2,0,left,0,3.675459799997043,None,None,,,,,,,,0,2,2,2,,,,,3489.540554599982,,,,,,,,,,,3489.529847800004,3489.53432286665,3489.540554599982,3489.540554599982,0.005285700026433915,0.016792000009445474,3491.6178080999816,3493.2214421999815,left,0,3.675459799997043,None,3493.225796999992,3493.2258895999985,None,,,,,,,,,,,,,,,,,,,,,,,,,,,26_L2,001,2025-05-01_14h21.46.826,LangExperimentstress,2024.2.4,60.00934945098976,2025-05-01 14h22.03.814125 -0400,
sounds/p2b_cortar.wav,CVC,Unstressed,Mismatch,present,num_1,0.0,0.205513,0.8629519999999999,0.984841,1.219715,1.27,101,20,21,22,23,24,0.005513,0.662952,0.784841,1.019715,1.07,p2b_cortar.wav,p2,b,p2b,3,3,0,left,0,3.549740299989935,None,None,,,,,,,,0,3,3,1,,,,,3493.2434488,,,,,,,,,,,3493.2316048999783,3493.235308366657,3493.2434488,3493.2434488,0.005732399993576109,0.018790700007230043,3495.5181613999885,3496.8038492999913,left,0,3.549740299989935,None,3496.808082899981,3496.8081730999984,None,,,,,,,,,,,,,,,,,,,,,,,,,,,26_L2,001,2025-05-01_14h21.46.826,LangExperimentstress,2024.2.4,60.00934945098976,2025-05-01 14h22.03.814125 -0400,
,,,,,,,,,,,,,,,,,,,,,,,,,,,,,,,,,,,,,,,,,,,,,,,,,,,,3496.8084008999867,3496.8180687999993,3496.8180687999993,3566.30367329999,space,69.47016830000211,None,,,,,,,,,,,,,,,,,,,,,,,,,,,,,,,,,,,,,,,,,,,,26_L2,001,2025-05-01_14h21.46.826,LangExperimentstress,2024.2.4,60.00934945098976,2025-05-01 14h22.03.814125 -0400,
,,,,,,,,,,,,,,,,,,,,,,,,,,,,,,,,,,,,,,,,,,,,,,,,,,,,,,,,,,,,,,,,,,,,,,,,,,,,3566.303714299982,3566.304134999984,,,,,,,,,,,,,,,,,,,,,,,,,26_L2,001,2025-05-01_14h21.46.826,LangExperimentstress,2024.2.4,60.00934945098976,2025-05-01 14h22.03.814125 -0400,
sounds/39b_manchar.wav,CVC,Unstressed,Mismatch,present,num_1,0.0,0.2,0.81,0.91203755787037,1.140584317129629,1.2139708912037,101,20,21,22,23,24,0,0.61,0.71203755787037,0.940584317129629,1.0139708912037,39b_manchar.wav,,b,,0,0,0,,,,,None,39,left,0,3.210929799999576,None,,,,,,,0,0,0,7,3566.3249190999777,,,,,,,,,,,,,,,,,,,,,,,3569.542783199984,3569.5428745999816,,,,3566.315239599993,3566.3189723666624,3566.3249190999777,3566.3249190999777,0.01112689997535199,0.021478499984368682,3568.586203599989,3569.5393060999922,left,0,3.210929799999576,None,None,,,,,,,,,,,,26_L2,001,2025-05-01_14h21.46.826,LangExperimentstress,2024.2.4,60.00934945098976,2025-05-01 14h22.03.814125 -0400,
sounds/09c_cargar.wav,CVC,Unstressed,Match,past,num_2,0.0,0.2,0.81286744068287,0.8382251229745361,1.032634020543981,1.090594437210648,101,30,31,32,33,34,0,0.61286744068287,0.638225122974536,0.832634020543981,0.890594437210648,09c_cargar.wav,,c,,1,1,0,,,,,None,9,right,0,5.449021800013725,None,,,,,,,0,1,1,28,3569.5588997000013,,,,,,,,,,,,,,,,,,,,,,,3575.0253329999978,3575.0254255000036,,,,3569.5478446999914,3569.5531287666568,3569.5588997000013,3569.5588997000013,0.0049817000108305365,0.016959400003543124,3571.486544299987,3575.022368999984,right,0,5.449021800013725,None,None,,,,,,,,,,,,26_L2,001,2025-05-01_14h21.46.826,LangExperimentstress,2024.2.4,60.00934945098976,2025-05-01 14h22.03.814125 -0400,
sounds/35b_secar.wav,CVC,Unstressed,Mismatch,present,num_1,0.0,0.2,0.8990044921875,1.025708658854166,1.179689416956018,1.20652606336805,101,20,21,22,23,24,0,0.6990044921875,0.825708658854166,0.979689416956018,1.00652606336805,35b_secar.wav,,b,,2,2,0,,,,,None,35,left,0,3.4553842999739572,None,,,,,,,0,2,2,5,3575.04140419999,,,,,,,,,,,,,,,,,,,,,,,3578.510153899988,3578.5102415999863,,,,3575.0308644000033,3575.0363478666445,3575.04140419999,3575.04140419999,0.005421500012744218,0.016637399996398017,3577.186570799997,3578.5060424999974,left,0,3.4553842999739572,None,None,,,,,,,,,,,,26_L2,001,2025-05-01_14h21.46.826,LangExperimentstress,2024.2.4,60.00934945098976,2025-05-01 14h22.03.814125 -0400,
sounds/24d_mirar.wav,CVC,Stressed,Mismatch,past,num_2,0.0,0.2,0.71,0.8119545789930551,0.9389863642939812,0.9746780743634248,101,40,41,42,43,44,0,0.51,0.611954578993055,0.738986364293981,0.774678074363425,24d_mirar.wav,,d,,3,3,0,,,,,None,24,right,0,3.8819103999994695,None,,,,,,,0,3,3,11,3578.5265992999775,,,,,,,,,,,,,,,,,,,,,,,3582.426970899978,3582.4270640999894,,,,3578.5151692999934,3578.5201665666577,3578.5265992999775,3578.5265992999775,0.004944500018609688,0.017530800017993897,3580.236675399996,3582.4228151999996,right,0,3.8819103999994695,None,None,,,,,,,,,,,,26_L2,001,2025-05-01_14h21.46.826,LangExperimentstress,2024.2.4,60.00934945098976,2025-05-01 14h22.03.814125 -0400,
sounds/31d_tocar.wav,CVC,Stressed,Mismatch,past,num_2,0.0,0.2,0.8493931756807,0.8650112062639721,1.006860547391531,1.049162047334928,101,40,41,42,43,44,0,0.6493931756807,0.665011206263972,0.806860547391531,0.849162047334928,31d_tocar.wav,,d,,4,4,0,,,,,None,31,right,0,6.91727649999666,None,,,,,,,0,4,4,30,3582.443763999996,,,,,,,,,,,,,,,,,,,,,,,3589.3759794999787,3589.3760708000045,,,,3582.4320311000047,3582.4367172666575,3582.443763999996,3582.443763999996,0.004971000016666949,0.0175613000174053,3584.3534545,3589.372745600005,right,0,6.91727649999666,None,None,,,,,,,,,,,,26_L2,001,2025-05-01_14h21.46.826,LangExperimentstress,2024.2.4,60.00934945098976,2025-05-01 14h22.03.814125 -0400,
sounds/16a_llevar.wav,CVC,Stressed,Match,present,num_1,0.0,0.2,0.929084516317274,0.964936524692279,1.08,1.131864014418682,101,10,11,12,13,14,0,0.729084516317274,0.764936524692279,0.88,0.931864014418682,16a_llevar.wav,,a,,5,5,0,,,,,None,16,right,0,7.032411199994385,None,,,,,,,0,5,5,21,3589.3920964999998,,,,,,,,,,,,,,,,,,,,,,,3596.4431110000005,3596.4431891999848,,,,3589.381287700002,3589.3868069666537,3589.3920964999998,3589.3920964999998,0.0052207999979145825,0.017003500019200146,3591.286707499996,3596.439154499996,right,0,7.032411199994385,None,None,,,,,,,,,,,,26_L2,001,2025-05-01_14h21.46.826,LangExperimentstress,2024.2.4,60.00934945098976,2025-05-01 14h22.03.814125 -0400,
sounds/06d_soplar.wav,CVC,Stressed,Mismatch,past,num_2,0.0,0.2,0.761291666666666,0.8899999999999999,1.102139687590422,1.166665581687644,101,40,41,42,43,44,0,0.561291666666666,0.69,0.902139687590422,0.966665581687644,06d_soplar.wav,,d,,6,6,0,,,,,None,6,left,0,4.600114700006088,None,,,,,,,0,6,6,16,3596.457339899993,,,,,,,,,,,,,,,,,,,,,,,3601.0770069999853,3601.077090000006,,,,3596.4475186000054,3596.453505066664,3596.457339899993,3596.457339899993,0.004333999997470528,0.014984399982495233,3598.3371753999963,3601.0726558000024,left,0,4.600114700006088,None,None,,,,,,,,,,,,26_L2,001,2025-05-01_14h21.46.826,LangExperimentstress,2024.2.4,60.00934945098976,2025-05-01 14h22.03.814125 -0400,
sounds/17d_tragar.wav,CVC,Stressed,Mismatch,past,num_2,0.0,0.2,1.070609360532407,1.117973654513888,1.30915316840277,1.35458539534397,101,40,41,42,43,44,0,0.870609360532407,0.917973654513888,1.10915316840277,1.15458539534397,17d_tragar.wav,,d,,7,7,0,,,,,None,17,right,0,6.72240420000162,None,,,,,,,0,7,7,26,3601.0944846000057,,,,,,,,,,,,,,,,,,,,,,,3607.8275050999946,3607.8275867000048,,,,3601.0831725999888,3601.0868718666648,3601.0944846000057,3601.0944846000057,0.006158199976198375,0.01854659998207353,3603.3871145999874,3607.823437999992,right,0,6.72240420000162,None,None,,,,,,,,,,,,26_L2,001,2025-05-01_14h21.46.826,LangExperimentstress,2024.2.4,60.00934945098976,2025-05-01 14h22.03.814125 -0400,
sounds/28d_parar.wav,CVC,Stressed,Mismatch,past,num_2,0.0,0.2,0.8458860026041659,0.862313736979166,1.018194683159722,1.032797113715277,101,40,41,42,43,44,0,0.645886002604166,0.662313736979166,0.818194683159722,0.832797113715277,28d_parar.wav,,d,,8,8,0,,,,,None,28,left,0,3.3309397000120953,None,,,,,,,0,8,8,18,3607.8451073000033,,,,,,,,,,,,,,,,,,,,,,,3611.194374899991,3611.1944663999893,,,,3607.832625799987,3607.837449466668,3607.8451073000033,3607.8451073000033,0.005056199996033683,0.018553700007032603,3609.771000699984,3611.1896882999863,left,0,3.3309397000120953,None,None,,,,,,,,,,,,26_L2,001,2025-05-01_14h21.46.826,LangExperimentstress,2024.2.4,60.00934945098976,2025-05-01 14h22.03.814125 -0400,
sounds/01d_salvar.wav,CVC,Stressed,Mismatch,past,num_2,0.0,0.2,0.8500000000000001,0.996069502314814,1.23,1.29,101,40,41,42,43,44,0,0.65,0.796069502314814,1.03,1.09,01d_salvar.wav,,d,,9,9,0,,,,,space,1,left,0,5.195533799997065,None,9.73102479998488,None,,,,,0,9,9,37,3611.2125127000036,,,,,,,,,,,,,,,,,,,,,,,3616.427355599997,3626.1735636999947,,,,3611.1999229999783,3611.2039293666644,3611.2125127000036,3611.2125127000036,0.005472500022733584,0.01923290002741851,3613.2706196999934,3616.423325699987,left,0,5.195533799997065,None,space,3616.4373939999787,3616.4373939999787,9.73102479998488,None,,,,,,,,26_L2,001,2025-05-01_14h21.46.826,LangExperimentstress,2024.2.4,60.00934945098976,2025-05-01 14h22.03.814125 -0400,
sounds/14b_borrar.wav,CVC,Unstressed,Mismatch,present,num_1,0.0,0.2,0.72,0.770187630208333,0.851961241319444,0.964399956597222,101,20,21,22,23,24,0,0.52,0.570187630208333,0.651961241319444,0.764399956597222,14b_borrar.wav,,b,,10,10,0,,,,,None,14,right,0,9.866477899980964,None,,,,,,,0,10,10,20,3626.190543899982,,,,,,,,,,,,,,,,,,,,,,,3636.077762700006,3636.07785099998,,,,3626.1789025999897,3626.1877488666546,3626.190543899982,3626.190543899982,0.005302499979734421,0.017891199997393414,3628.137394199992,3636.0734903999837,right,0,9.866477899980964,None,None,,,,,,,,,,,,26_L2,001,2025-05-01_14h21.46.826,LangExperimentstress,2024.2.4,60.00934945098976,2025-05-01 14h22.03.814125 -0400,
sounds/38b_pagar.wav,CVC,Unstressed,Mismatch,present,num_1,0.0,0.2,1.166737304687499,1.185271158854166,1.29521061197916,1.4055712890624898,101,20,21,22,23,24,0,0.966737304687499,0.985271158854166,1.09521061197916,1.20557128906249,38b_pagar.wav,,b,,11,11,0,,,,,None,38,left,0,6.690006099990569,None,,,,,,,0,11,11,17,3636.09580499999,,,,,,,,,,,,,,,,,,,,,,,3642.7952076999936,3642.7952935999783,,,,3636.0834280999843,3636.087484466673,3636.09580499999,3636.09580499999,0.0055970000103116035,0.01915740000549704,3638.3378524,3642.790878400003,left,0,6.690006099990569,None,None,,,,,,,,,,,,26_L2,001,2025-05-01_14h21.46.826,LangExperimentstress,2024.2.4,60.00934945098976,2025-05-01 14h22.03.814125 -0400,
sounds/02c_buscar.wav,CVC,Unstressed,Match,past,num_2,0.0,0.2,0.8700000000000001,1.07,1.26,1.40703946035879,101,30,31,32,33,34,0,0.67,0.87,1.06,1.20703946035879,02c_buscar.wav,,c,,12,12,0,,,,,None,2,left,0,5.532168900012039,None,,,,,,,0,12,12,34,3642.812526099995,,,,,,,,,,,,,,,,,,,,,,,3648.3610412999988,3648.361130000005,,,,3642.800989499985,3642.805062166652,3642.812526099995,3642.812526099995,0.005716699990443885,0.018313000007765368,3644.93803629998,3648.3568484999996,left,0,5.532168900012039,None,None,,,,,,,,,,,,26_L2,001,2025-05-01_14h21.46.826,LangExperimentstress,2024.2.4,60.00934945098976,2025-05-01 14h22.03.814125 -0400,
sounds/34c_formar.wav,CVC,Unstressed,Match,past,num_2,0.0,0.2,0.876373676215277,0.992687651909722,1.14,1.26319767795138,101,30,31,32,33,34,0,0.676373676215277,0.792687651909722,0.94,1.06319767795138,34c_formar.wav,,c,,13,13,0,,,,,None,34,left,0,6.391646900010528,None,,,,,,,0,13,13,2,3648.376929399994,,,,,,,,,,,,,,,,,,,,,,,3654.778290599992,3654.7783836000017,,,,3648.3666932999913,3648.3712934666587,3648.376929399994,3648.376929399994,0.00556489999871701,0.01672720001079142,3650.621420599986,3654.774181799992,left,0,6.391646900010528,None,None,,,,,,,,,,,,26_L2,001,2025-05-01_14h21.46.826,LangExperimentstress,2024.2.4,60.00934945098976,2025-05-01 14h22.03.814125 -0400,
sounds/40c_gastar.wav,CVC,Unstressed,Match,past,num_2,0.0,0.2,0.8300000000000001,0.8400000000000001,1.163436328125,1.183149609375,101,30,31,32,33,34,0,0.63,0.64,0.963436328125,0.983149609375,40c_gastar.wav,,c,,14,14,0,,,,,None,40,right,0,3.6374097000225447,None,,,,,,,0,14,14,0,3654.795369200001,,,,,,,,,,,,,,,,,,,,,,,3658.4449344000022,3658.4450166999886,,,,3654.783915899985,3654.7882595666492,3654.795369200001,3654.795369200001,0.005560799996601418,0.01818650000495836,3656.9047608999826,3658.4419085999834,right,0,3.6374097000225447,None,None,,,,,,,,,,,,26_L2,001,2025-05-01_14h21.46.826,LangExperimentstress,2024.2.4,60.00934945098976,2025-05-01 14h22.03.814125 -0400,
sounds/05a_fumar.wav,CVC,Stressed,Match,present,num_1,0.0,0.2,1.15,1.36712555700231,1.48,1.56308830295138,101,10,11,12,13,14,0,0.95,1.16712555700231,1.28,1.36308830295138,05a_fumar.wav,,a,,15,15,0,,,,,None,5,left,0,3.4737773000088055,None,,,,,,,0,15,15,38,3658.4622597999987,,,,,,,,,,,,,,,,,,,,,,,3661.9458194999897,3661.9459074999904,,,,3658.4513752999774,3658.456022566654,3658.4622597999987,3658.4622597999987,0.006402500002877787,0.018344900017837062,3660.821588599996,3661.9417501999997,left,0,3.4737773000088055,None,None,,,,,,,,,,,,26_L2,001,2025-05-01_14h21.46.826,LangExperimentstress,2024.2.4,60.00934945098976,2025-05-01 14h22.03.814125 -0400,
sounds/32d_pulsar.wav,CVC,Stressed,Mismatch,past,num_2,0.0,0.2,0.796440212673611,0.8294641710069439,0.99,1.097783832465277,101,40,41,42,43,44,0,0.596440212673611,0.629464171006944,0.79,0.897783832465277,32d_pulsar.wav,,d,,16,16,0,,,,,None,32,right,0,3.6136765999835916,None,,,,,,,0,16,16,24,3661.9621613000054,,,,,,,,,,,,,,,,,,,,,,,3665.594002800004,3665.5940799999807,,,,3661.951243999996,3661.9557869666646,3661.9621613000054,3661.9621613000054,0.005369300022721291,0.017346200009342283,3663.7884479999775,3665.590226200002,right,0,3.6136765999835916,None,None,,,,,,,,,,,,26_L2,001,2025-05-01_14h21.46.826,LangExperimentstress,2024.2.4,60.00934945098976,2025-05-01 14h22.03.814125 -0400,
sounds/23a_tomar.wav,CVC,Stressed,Match,present,num_1,0.0,0.2,0.9453179615162032,0.95,1.08,1.158644495081018,101,10,11,12,13,14,0,0.745317961516203,0.75,0.88,0.958644495081018,23a_tomar.wav,,a,,17,17,0,,,,,None,23,left,0,3.966638599988073,None,,,,,,,0,17,17,39,3665.6092186000024,,,,,,,,,,,,,,,,,,,,,,,3669.5954884999956,3669.595577899978,,,,3665.5985519999813,3665.604666466654,3665.6092186000024,3665.6092186000024,0.004476700007217005,0.015994800021871924,3667.5049735999783,3669.591358899983,left,0,3.966638599988073,None,None,,,,,,,,,,,,26_L2,001,2025-05-01_14h21.46.826,LangExperimentstress,2024.2.4,60.00934945098976,2025-05-01 14h22.03.814125 -0400,
sounds/04c_plantar.wav,CVC,Unstressed,Match,past,num_2,0.0,0.2,0.862877574458911,0.9343518689653568,1.20493812332404,1.21897569287037,101,30,31,32,33,34,0,0.662877574458911,0.734351868965357,1.00493812332404,1.01897569287037,04c_plantar.wav,,c,,18,18,0,,,,,None,4,right,0,3.228486599982716,None,,,,,,,0,18,18,9,3669.612213399989,,,,,,,,,,,,,,,,,,,,,,,3672.8610603999987,3672.8611450000026,,,,3669.6011965999787,3669.6054070666473,3669.612213399989,3669.612213399989,0.0056715999962762,0.017492599989054725,3671.655327299988,3672.857427399984,right,0,3.228486599982716,None,None,,,,,,,,,,,,26_L2,001,2025-05-01_14h21.46.826,LangExperimentstress,2024.2.4,60.00934945098976,2025-05-01 14h22.03.814125 -0400,
sounds/08d_filtrar.wav,CVC,Stressed,Mismatch,past,num_2,0.0,0.2,0.7526856695589441,0.87808115762362,1.118901843962886,1.172598812485867,101,40,41,42,43,44,0,0.552685669558944,0.67808115762362,0.918901843962886,0.972598812485867,08d_filtrar.wav,,d,,19,19,0,,,,,space,8,left,0,2.972349999996368,None,7.552173299976857,None,,,,,0,19,19,15,3672.8767202000017,,,,,,,,,,,,,,,,,,,,,,,3675.8618794999784,3683.4417759999924,,,,3672.865925799997,3672.8717378666665,3672.8767202000017,3672.8767202000017,0.004796599998371676,0.016375000006519258,3674.6386604,3675.8578754999908,left,0,2.972349999996368,None,space,3675.871766600001,3675.871766600001,7.552173299976857,None,,,,,,,,26_L2,001,2025-05-01_14h21.46.826,LangExperimentstress,2024.2.4,60.00934945098976,2025-05-01 14h22.03.814125 -0400,
sounds/37b_pasar.wav,CVC,Unstressed,Mismatch,present,num_1,0.0,0.2,1.033132486979166,1.052087565104166,1.159499674479166,1.27702115885416,101,20,21,22,23,24,0,0.833132486979166,0.852087565104166,0.959499674479166,1.07702115885416,37b_pasar.wav,,b,,20,20,0,,,,,None,37,left,0,2.8386262000130955,None,,,,,,,0,20,20,23,3683.457906800002,,,,,,,,,,,,,,,,,,,,,,,3686.3131039,3686.313205899991,,,,3683.447215399996,3683.455874666663,3683.457906800002,3683.457906800002,0.005404199997428805,0.01700569997774437,3685.571856399998,3686.309383999993,left,0,2.8386262000130955,None,None,,,,,,,,,,,,26_L2,001,2025-05-01_14h21.46.826,LangExperimentstress,2024.2.4,60.00934945098976,2025-05-01 14h22.03.814125 -0400,
sounds/03b_limpiar.wav,CVC,Unstressed,Mismatch,present,num_1,0.0,0.2,0.8500000000000001,0.932367621527777,1.26878515625,1.35808463541666,101,20,21,22,23,24,0,0.65,0.732367621527777,1.06878515625,1.15808463541666,03b_limpiar.wav,,b,,21,21,0,,,,,None,3,left,0,2.63046879999456,None,,,,,,,0,21,21,4,3686.3298965999857,,,,,,,,,,,,,,,,,,,,,,,3688.9788186999795,3688.978908099991,,,,3686.319133799989,3686.323254466672,3686.3298965999857,3686.3298965999857,0.0059621999971568584,0.017376800009515136,3688.472715199983,3688.9748349,left,0,2.63046879999456,None,None,,,,,,,,,,,,26_L2,001,2025-05-01_14h21.46.826,LangExperimentstress,2024.2.4,60.00934945098976,2025-05-01 14h22.03.814125 -0400,
sounds/25b_ganar.wav,CVC,Unstressed,Mismatch,present,num_1,0.0,0.2,1.152097938368055,1.15990068760488,1.28904165650454,1.37272500435153,101,20,21,22,23,24,0,0.952097938368055,0.95990068760488,1.08904165650454,1.17272500435153,25b_ganar.wav,,b,,22,22,0,,,,,None,25,left,0,2.852784899994731,None,,,,,,,0,22,22,8,3688.995867999998,,,,,,,,,,,,,,,,,,,,,,,3691.861239799997,3691.8613227999886,,,,3688.984445499984,3688.9887963666447,3688.995867999998,3688.995867999998,0.005552099988562986,0.01800569999613799,3691.3388726999983,3691.858746599988,left,0,2.852784899994731,None,None,,,,,,,,,,,,26_L2,001,2025-05-01_14h21.46.826,LangExperimentstress,2024.2.4,60.00934945098976,2025-05-01 14h22.03.814125 -0400,
sounds/11a_pegar.wav,CVC,Stressed,Match,present,num_1,0.0,0.2,0.8182808977343741,0.831294515585661,0.98,1.012063288108519,101,10,11,12,13,14,0,0.618280897734374,0.631294515585661,0.78,0.812063288108519,11a_pegar.wav,,a,,23,23,0,,,,,None,11,left,0,4.17200569997658,None,,,,,,,0,23,23,3,3691.8764511999907,,,,,,,,,,,,,,,,,,,,,,,3696.0619152,3696.0620018999907,,,,3691.8658401999855,3691.8729183666624,3691.8764511999907,3691.8764511999907,0.004521099996054545,0.016084600007161498,3693.8222134999814,3696.058021499979,left,0,4.17200569997658,None,None,,,,,,,,,,,,26_L2,001,2025-05-01_14h21.46.826,LangExperimentstress,2024.2.4,60.00934945098976,2025-05-01 14h22.03.814125 -0400,
sounds/21a_mezclar.wav,CVC,Stressed,Match,present,num_1,0.0,0.2,0.78,0.9121902777777772,1.20214212962962,1.27,101,10,11,12,13,14,0,0.58,0.712190277777777,1.00214212962962,1.07,21a_mezclar.wav,,a,,24,24,0,,,,,None,21,left,0,3.148525399999926,None,,,,,,,0,24,24,27,3696.076662699983,,,,,,,,,,,,,,,,,,,,,,,3699.245969099982,3699.2460629999987,,,,3696.0668239999795,3696.072407766657,3696.076662699983,3696.076662699983,0.00482560001546517,0.015490899997530505,3698.1058747999778,3699.2423347999866,left,0,3.148525399999926,None,None,,,,,,,,,,,,26_L2,001,2025-05-01_14h21.46.826,LangExperimentstress,2024.2.4,60.00934945098976,2025-05-01 14h22.03.814125 -0400,
sounds/07c_tumbar.wav,CVC,Unstressed,Match,past,num_2,0.0,0.2,0.9084024930273432,0.9247360728973012,1.143289673625005,1.154847989033482,101,30,31,32,33,34,0,0.708402493027343,0.724736072897301,0.943289673625005,0.954847989033482,07c_tumbar.wav,,c,,25,25,0,,,,,None,7,right,0,2.738623800018104,None,,,,,,,0,25,25,6,3699.2623953,,,,,,,,,,,,,,,,,,,,,,,3702.012557499984,3702.012636999978,,,,3699.2512179999903,3699.2559735666478,3699.2623953,3699.2623953,0.005160100001376122,0.01726079999934882,3701.2060917000053,3702.0083407000056,right,0,2.738623800018104,None,None,,,,,,,,,,,,26_L2,001,2025-05-01_14h21.46.826,LangExperimentstress,2024.2.4,60.00934945098976,2025-05-01 14h22.03.814125 -0400,
sounds/26a_bajar.wav,CVC,Stressed,Match,present,num_1,0.0,0.2,0.77,0.8999999999999999,1.03,1.171181705729166,101,10,11,12,13,14,0,0.57,0.7,0.83,0.971181705729166,26a_bajar.wav,,a,,26,26,0,,,,,None,26,left,0,3.4280405000026803,None,,,,,,,0,26,26,13,3702.029084799986,,,,,,,,,,,,,,,,,,,,,,,3705.479211800004,3705.4793033000024,,,,3702.0178816999833,3702.0226237666543,3702.029084799986,3702.029084799986,0.005260200006887317,0.017660400015302002,3704.105981999979,3705.4749445999914,left,0,3.4280405000026803,None,None,,,,,,,,,,,,26_L2,001,2025-05-01_14h21.46.826,LangExperimentstress,2024.2.4,60.00934945098976,2025-05-01 14h22.03.814125 -0400,
sounds/15b_partir.wav,CVC,Unstressed,Mismatch,present,num_1,0.0,0.2,0.826865400752314,0.842973894883327,1.1042888772729471,1.120815958498066,101,20,21,22,23,24,0,0.626865400752314,0.642973894883327,0.904288877272947,0.920815958498066,15b_partir.wav,,b,,27,27,0,,,,,None,15,left,0,3.704271599999629,None,,,,,,,0,27,27,22,3705.496120099997,,,,,,,,,,,,,,,,,,,,,,,3709.2117003999883,3709.21178089999,,,,3705.484905999998,3705.4891886666633,3705.496120099997,3705.496120099997,0.005621500022243708,0.017978100018808618,3707.5557606999937,3709.208694400004,left,0,3.704271599999629,None,None,,,,,,,,,,,,26_L2,001,2025-05-01_14h21.46.826,LangExperimentstress,2024.2.4,60.00934945098976,2025-05-01 14h22.03.814125 -0400,
sounds/18b_cumplir.wav,CVC,Unstressed,Mismatch,present,num_1,0.0,0.2,1.2408027271412,1.25568597366898,1.46256310040509,1.54144430700231,101,20,21,22,23,24,0,1.0408027271412,1.05568597366898,1.26256310040509,1.34144430700231,18b_cumplir.wav,,b,,28,28,0,,,,,None,18,left,0,5.407419399998616,None,,,,,,,0,28,28,29,3709.225819399988,,,,,,,,,,,,,,,,,,,,,,,3714.6460942999984,3714.6461765999848,,,,3709.216698300006,3709.222706566656,3709.225819399988,3709.225819399988,0.004924100008793175,0.014802999998209998,3711.406121099979,3714.6421674999874,left,0,5.407419399998616,None,None,,,,,,,,,,,,26_L2,001,2025-05-01_14h21.46.826,LangExperimentstress,2024.2.4,60.00934945098976,2025-05-01 14h22.03.814125 -0400,
sounds/13c_montar.wav,CVC,Unstressed,Match,past,num_2,0.0,0.2,0.8800000000000001,0.98,1.24543012152777,1.2594709201388798,101,30,31,32,33,34,0,0.68,0.78,1.04543012152777,1.05947092013888,13c_montar.wav,,c,,29,29,0,,,,,space,13,right,0,2.6016791999863926,None,6.159153399989009,None,,,,,0,29,29,33,3714.662273199996,,,,,,,,,,,,,,,,,,,,,,,3717.2788996000018,3723.458748999983,,,,3714.6509063999983,3714.6562713666685,3714.662273199996,3714.662273199996,0.004738000017823651,0.016940000001341105,3716.956175200001,3717.275781000004,right,0,2.6016791999863926,None,space,3717.289481499989,3717.289481499989,6.159153399989009,None,,,,,,,,26_L2,001,2025-05-01_14h21.46.826,LangExperimentstress,2024.2.4,60.00934945098976,2025-05-01 14h22.03.814125 -0400,
sounds/12a_matar.wav,CVC,Stressed,Match,present,num_1,0.0,0.2,0.8400000000000001,0.96,1.17307472511574,1.186647497106481,101,10,11,12,13,14,0,0.64,0.76,0.97307472511574,0.986647497106481,12a_matar.wav,,a,,30,30,0,,,,,None,12,left,0,3.917018800013466,None,,,,,,,0,30,30,25,3723.4753900999785,,,,,,,,,,,,,,,,,,,,,,,3727.413078099984,3727.4131693999807,,,,3723.464177099988,3723.4729289666616,3723.4753900999785,3723.4753900999785,0.0053937999764457345,0.017545999988215044,3725.6731496999855,3727.4090756999794,left,0,3.917018800013466,None,None,,,,,,,,,,,,26_L2,001,2025-05-01_14h21.46.826,LangExperimentstress,2024.2.4,60.00934945098976,2025-05-01 14h22.03.814125 -0400,
sounds/19a_marcar.wav,CVC,Stressed,Match,present,num_1,0.0,0.2,0.8400000000000001,0.97,1.245718359375,1.273519140625,101,10,11,12,13,14,0,0.64,0.77,1.045718359375,1.073519140625,19a_marcar.wav,,a,,31,31,0,,,,,None,19,left,0,3.786364700004924,None,,,,,,,0,31,31,19,3727.4299820000015,,,,,,,,,,,,,,,,,,,,,,,3731.2299311999814,3731.230016299989,,,,3727.418466300005,3727.4229842666577,3727.4299820000015,3727.4299820000015,0.005299799988279119,0.0176013000018429,3729.3395978999906,3731.225852100004,left,0,3.786364700004924,None,None,,,,,,,,,,,,26_L2,001,2025-05-01_14h21.46.826,LangExperimentstress,2024.2.4,60.00934945098976,2025-05-01 14h22.03.814125 -0400,
sounds/36c_bordar.wav,CVC,Unstressed,Match,past,num_2,0.0,0.2,1.0,1.078468243634259,1.3288624855324,1.3414992042824,101,30,31,32,33,34,0,0.8,0.878468243634259,1.1288624855324,1.1414992042824,36c_bordar.wav,,c,,32,32,0,,,,,None,36,right,0,2.5510666000191122,None,,,,,,,0,32,32,1,3731.249379999994,,,,,,,,,,,,,,,,,,,,,,,3733.812677699985,3733.812756900006,,,,3731.2368811999913,3731.2397974666715,3731.249379999994,3731.249379999994,0.006886800023494288,0.020446900016395375,3733.5232212999836,3733.808827300003,right,0,2.5510666000191122,None,None,,,,,,,,,,,,26_L2,001,2025-05-01_14h21.46.826,LangExperimentstress,2024.2.4,60.00934945098976,2025-05-01 14h22.03.814125 -0400,
sounds/20c_cubrir.wav,CVC,Unstressed,Match,past,num_2,0.0,0.2,0.980138641742621,1.01,1.192436112212021,1.28412143493692,101,30,31,32,33,34,0,0.780138641742621,0.81,0.992436112212021,1.08412143493692,20c_cubrir.wav,,c,,33,33,0,,,,,None,20,right,0,3.94000150001375,None,,,,,,,0,33,33,31,3733.8285003000055,,,,,,,,,,,,,,,,,,,,,,,3737.7803694999893,3737.7804526999826,,,,3733.8176516999956,3733.82321596667,3733.8285003000055,3733.8285003000055,0.0049060000164899975,0.017217399989021942,3735.9731761000003,3737.7761268999893,right,0,3.94000150001375,None,None,,,,,,,,,,,,26_L2,001,2025-05-01_14h21.46.826,LangExperimentstress,2024.2.4,60.00934945098976,2025-05-01 14h22.03.814125 -0400,
sounds/10d_vender.wav,CVC,Stressed,Mismatch,past,num_2,0.0,0.2,0.832830209056713,0.8775468199411529,1.109501330306288,1.158928471023364,101,40,41,42,43,44,0,0.632830209056713,0.677546819941153,0.909501330306288,0.958928471023364,10d_vender.wav,,d,,34,34,0,,,,,None,10,right,0,2.554337800014764,None,,,,,,,0,34,34,12,3737.797521999979,,,,,,,,,,,,,,,,,,,,,,,3740.3602469000034,3740.360284399998,,,,3737.785369399993,3737.789888066651,3737.797521999979,3737.797521999979,0.004933000018354505,0.018214200012153015,3739.7068841999862,3740.357835599978,right,0,2.554337800014764,None,None,,,,,,,,,,,,26_L2,001,2025-05-01_14h21.46.826,LangExperimentstress,2024.2.4,60.00934945098976,2025-05-01 14h22.03.814125 -0400,
sounds/27c_tirar.wav,CVC,Unstressed,Match,past,num_2,0.0,0.2,0.8119442057291659,0.8307495153356481,0.9885306495949072,0.998621303530092,101,30,31,32,33,34,0,0.611944205729166,0.630749515335648,0.788530649594907,0.798621303530092,27c_tirar.wav,,c,,35,35,0,,,,,None,27,right,0,4.4993141000159085,None,,,,,,,0,35,35,10,3740.373785100004,,,,,,,,,,,,,,,,,,,,,,,3744.8795203999907,3744.879613600002,,,,3740.3624927999917,3740.3730401666585,3740.373785100004,3740.373785100004,0.0022186999849509448,0.01461899999412708,3742.3733252999955,3744.8763632999908,right,0,4.4993141000159085,None,None,,,,,,,,,,,,26_L2,001,2025-05-01_14h21.46.826,LangExperimentstress,2024.2.4,60.00934945098976,2025-05-01 14h22.03.814125 -0400,
sounds/29a_pesar.wav,CVC,Stressed,Match,present,num_1,0.0,0.2,0.91328417532552,0.925531286730473,1.03,1.150619522602117,101,10,11,12,13,14,0,0.71328417532552,0.725531286730473,0.83,0.950619522602117,29a_pesar.wav,,a,,36,36,0,,,,,None,29,left,0,2.3936923000146635,None,,,,,,,0,36,36,32,3744.895794399985,,,,,,,,,,,,,,,,,,,,,,,3747.2957332999795,3747.2957826999773,,,,3744.885124799999,3744.890261866651,3744.895794399985,3744.895794399985,0.005512699979590252,0.017108899977756664,3746.806581599987,3747.2933453999867,left,0,2.3936923000146635,None,None,,,,,,,,,,,,26_L2,001,2025-05-01_14h21.46.826,LangExperimentstress,2024.2.4,60.00934945098976,2025-05-01 14h22.03.814125 -0400,
sounds/30a_fundar.wav,CVC,Stressed,Match,present,num_1,0.0,0.2,0.77,0.91,1.112685546875,1.12,101,10,11,12,13,14,0,0.57,0.71,0.912685546875,0.92,30a_fundar.wav,,a,,37,37,0,,,,,None,30,right,0,2.940001000009943,None,,,,,,,0,37,37,36,3747.308971099992,,,,,,,,,,,,,,,,,,,,,,,3750.264489399997,3750.264573499997,,,,3747.298267699982,3747.3083472666663,3747.308971099992,3747.308971099992,0.0024874999944586307,0.013755399995716289,3749.4567406999995,3750.260099999985,right,0,2.940001000009943,None,None,,,,,,,,,,,,26_L2,001,2025-05-01_14h21.46.826,LangExperimentstress,2024.2.4,60.00934945098976,2025-05-01 14h22.03.814125 -0400,
sounds/33b_culpar.wav,CVC,Unstressed,Mismatch,present,num_1,0.0,0.2,0.8606178431336959,0.869103678029107,1.109891641372144,1.131540467434179,101,20,21,22,23,24,0,0.660617843133696,0.669103678029107,0.909891641372144,0.931540467434179,33b_culpar.wav,,b,,38,38,0,,,,,None,33,left,0,2.3266462000028696,None,,,,,,,0,38,38,35,3750.2817165000015,,,,,,,,,,,,,,,,,,,,,,,3752.630123299983,3752.6302511999966,,,,3750.2701333999867,3750.27413556667,3750.2817165000015,3750.2817165000015,0.00560039997799322,0.018326799996430054,3752.4569470999995,3752.6260906999814,left,0,2.3266462000028696,None,None,,,,,,,,,,,,26_L2,001,2025-05-01_14h21.46.826,LangExperimentstress,2024.2.4,60.00934945098976,2025-05-01 14h22.03.814125 -0400,
sounds/22d_dejar.wav,CVC,Stressed,Mismatch,past,num_2,0.0,0.2,0.8500000000000001,1.02,1.152543366608796,1.28794346788194,101,40,41,42,43,44,0,0.65,0.82,0.952543366608796,1.08794346788194,22d_dejar.wav,,d,,39,39,0,,,,,None,22,right,0,2.4334138999984134,None,,,,,,,0,39,39,14,3752.647630499996,,,,,,,,,,,,,,,,,,,,,,,3755.097570299986,3755.097654399986,,,,3752.6360472999804,3752.640418666652,3752.647630499996,3752.647630499996,0.005811899987747893,0.018427300004987046,3754.6909323,3755.0933397999906,right,0,2.4334138999984134,None,None,,,,,,,,,,,,26_L2,001,2025-05-01_14h21.46.826,LangExperimentstress,2024.2.4,60.00934945098976,2025-05-01 14h22.03.814125 -0400,
,,,,,,,,,,,,,,,,,,,,,,,,,,,,,,,,,,,,,,,,,,,,,,,,,,,,,,,,,,,,,,,,,,,,,,,,,,,,,,,,,,,,,,,,,,,,,,,3755.097896499996,3755.107748099981,3755.107748099981,3787.243880199996,space,32.124710500007495,None,26_L2,001,2025-05-01_14h21.46.826,LangExperimentstress,2024.2.4,60.00934945098976,2025-05-01 14h22.03.814125 -0400,
