sounds,syll,stress_unstress,suffix,present_past,corrAns,trigger_item,trigger_senonset,trigger_verbsonset,trigger_1_F0,trigger_suffix,trigger_2_F0,ID_item,ID_senonset,ID_verbonset,ID_1_F0,ID_suffix,ID_2_F0,ms_senonset,ms_verbonset,ms_1_F0,ms_suffix,ms_2_F0,file_name,sentence,cond,combo,thisN,thisTrialN,thisRepN,key_resp_4.keys,key_resp_4.corr,key_resp_4.rt,key_resp_4.duration,key_resp_5.keys,item_id,key_resp_2.keys,key_resp_2.corr,key_resp_2.rt,key_resp_2.duration,key_resp_5.rt,key_resp_5.duration,practice_trials.thisRepN,practice_trials.thisTrialN,practice_trials.thisN,practice_trials.thisIndex,experimental_trials.thisRepN,experimental_trials.thisTrialN,experimental_trials.thisN,experimental_trials.thisIndex,thisRow.t,notes,instructions.started,instr.started,key_resp.started,instructions.stopped,key_resp.keys,key_resp.rt,key_resp.duration,init_practice.started,init_practice.stopped,test_practice.started,test_sound_2.started,key_resp_4.started,polygon.started,serialPort_item_2.started,serialPort_item_2.stopped,test_sound_2.stopped,test_practice.stopped,practice_trials.key_resp_4.keys,practice_trials.key_resp_4.corr,practice_trials.key_resp_4.rt,practice_trials.key_resp_4.duration,takeabreak.started,takeabreak.stopped,practice_trials.key_resp_5.keys,init_trials.started,init_trials.stopped,test.started,test_sound.started,key_resp_2.started,polygon_2.started,serialPort_item.started,serialPort_item.stopped,test_sound.stopped,test.stopped,experimental_trials.key_resp_2.keys,experimental_trials.key_resp_2.corr,experimental_trials.key_resp_2.rt,experimental_trials.key_resp_2.duration,experimental_trials.key_resp_5.keys,text_3.started,key_resp_5.started,experimental_trials.key_resp_5.rt,experimental_trials.key_resp_5.duration,Thanks.started,text_2.started,key_resp_thanks.started,Thanks.stopped,key_resp_thanks.keys,key_resp_thanks.rt,key_resp_thanks.duration,participant,session,date,expName,psychopyVersion,frameRate,expStart,
,,,,,,,,,,,,,,,,,,,,,,,,,,,,,,,,,,,,,,,,,,,,,,,,,,,,0.0026593999937176704,0.019981899997219443,0.019981899997219443,4553.006834600004,space,4552.959713799995,None,,,,,,,,,,,,,,,,,,,,,,,,,,,,,,,,,,,,,,,,,,,,5_L2,001,2025-04-22_12h31.12.703,LangExperimentstress,2024.2.4,60.22097484691282,2025-04-22 12h31.29.398287 -0400,
,,,,,,,,,,,,,,,,,,,,,,,,,,,,,,,,,,,,,,,,,,,,,,,,,,,,,,,,,,,4553.006920500004,4553.007538999998,,,,,,,,,,,,,,,,,,,,,,,,,,,,,,,,,,,,,,,,,,5_L2,001,2025-04-22_12h31.12.703,LangExperimentstress,2024.2.4,60.22097484691282,2025-04-22 12h31.29.398287 -0400,
sounds/p2b_cortar.wav,CVC,Unstressed,Mismatch,present,num_1,0.0,0.205513,0.8629519999999999,0.984841,1.219715,1.27,101,20,21,22,23,24,0.005513,0.662952,0.784841,1.019715,1.07,p2b_cortar.wav,p2,b,p2b,0,0,0,left,0,7.55326650000643,None,None,,,,,,,,0,0,0,1,,,,,4553.033198699995,,,,,,,,,,,4553.021569000004,4553.036640499992,4553.033198699995,4553.033198699995,0.01404630001343321,0.026639500007149763,4555.304030300002,4560.5893123999995,left,0,7.55326650000643,None,4560.592552599992,4560.592640599993,None,,,,,,,,,,,,,,,,,,,,,,,,,,,5_L2,001,2025-04-22_12h31.12.703,LangExperimentstress,2024.2.4,60.22097484691282,2025-04-22 12h31.29.398287 -0400,
sounds/p4d_cortar.wav,CVC,Stressed,Mismatch,past,num_2,0.0,0.205513,0.8629519999999999,0.984841,1.219715,1.27,101,40,41,42,43,44,0.005513,0.662952,0.784841,1.019715,1.07,p4d_cortar.wav,p4,d,p4d,1,1,0,right,0,10.5451871999976,None,None,,,,,,,,0,1,1,3,,,,,4560.610138899996,,,,,,,,,,,4560.599413999997,4560.603664766666,4560.610138899996,4560.610138899996,0.006791499996325001,0.018473699994501658,4563.120133599994,4571.172721900002,right,0,10.5451871999976,None,4571.1767133999965,4571.176805800002,None,,,,,,,,,,,,,,,,,,,,,,,,,,,5_L2,001,2025-04-22_12h31.12.703,LangExperimentstress,2024.2.4,60.22097484691282,2025-04-22 12h31.29.398287 -0400,
sounds/p3c_saltar.wav,CVC,Unstressed,Match,past,num_2,0.0,0.205513,0.8629519999999999,0.984841,1.219715,1.27,101,30,31,32,33,34,0.005513,0.662952,0.784841,1.019715,1.07,p3c_saltar.wav,p3,c,p3c,2,2,0,right,0,3.225374500005273,None,None,,,,,,,,0,2,2,2,,,,,4571.193635699994,,,,,,,,,,,4571.182637399994,4571.187093966659,4571.193635699994,4571.193635699994,0.005837999997311272,0.017772599996533245,4573.270731900004,4574.423772800001,right,0,3.225374500005273,None,4574.427368299992,4574.427456899997,None,,,,,,,,,,,,,,,,,,,,,,,,,,,5_L2,001,2025-04-22_12h31.12.703,LangExperimentstress,2024.2.4,60.22097484691282,2025-04-22 12h31.29.398287 -0400,
sounds/p1a_saltar.wav,CVC,Stressed,Match,present,num_1,0.0,0.205513,0.8629519999999999,0.984841,1.219715,1.27,101,10,11,12,13,14,0.005513,0.662952,0.784841,1.019715,1.07,p1a_saltar.wav,p1,a,p1a,3,3,0,right,0,20.077872000008938,None,None,,,,,,,,0,3,3,0,,,,,4574.445496500004,,,,,,,,,,,4574.433884700004,4574.437773666668,4574.445496500004,4574.445496500004,0.006459199998062104,0.01917489999323152,4576.6872622999945,4594.540226600002,right,0,20.077872000008938,None,4594.544417099998,4594.544509400002,None,,,,,,,,,,,,,,,,,,,,,,,,,,,5_L2,001,2025-04-22_12h31.12.703,LangExperimentstress,2024.2.4,60.22097484691282,2025-04-22 12h31.29.398287 -0400,
,,,,,,,,,,,,,,,,,,,,,,,,,,,,,,,,,,,,,,,,,,,,,,,,,,,,4594.5447428999905,4594.554980500005,4594.554980500005,4609.791512600001,space,15.232365899995784,None,,,,,,,,,,,,,,,,,,,,,,,,,,,,,,,,,,,,,,,,,,,,5_L2,001,2025-04-22_12h31.12.703,LangExperimentstress,2024.2.4,60.22097484691282,2025-04-22 12h31.29.398287 -0400,
,,,,,,,,,,,,,,,,,,,,,,,,,,,,,,,,,,,,,,,,,,,,,,,,,,,,,,,,,,,,,,,,,,,,,,,,,,,,4609.791599699995,4609.792525600002,,,,,,,,,,,,,,,,,,,,,,,,,5_L2,001,2025-04-22_12h31.12.703,LangExperimentstress,2024.2.4,60.22097484691282,2025-04-22 12h31.29.398287 -0400,
sounds/33b_culpar.wav,CVC,Unstressed,Mismatch,present,num_1,0.0,0.2,0.8606178431336959,0.869103678029107,1.109891641372144,1.131540467434179,101,20,21,22,23,24,0,0.660617843133696,0.669103678029107,0.909891641372144,0.931540467434179,33b_culpar.wav,,b,,0,0,0,,,,,None,33,left,0,10.404210499997134,None,,,,,,,0,0,0,35,4609.822908999995,,,,,,,,,,,,,,,,,,,,,,,4620.243668299998,4620.243755499992,,,,4609.812641299999,4609.822170833337,4609.822908999995,4609.822908999995,0.02010290000180248,0.030954800007748418,4611.987983200001,4620.240173500002,left,0,10.404210499997134,None,None,,,,,,,,,,,,5_L2,001,2025-04-22_12h31.12.703,LangExperimentstress,2024.2.4,60.22097484691282,2025-04-22 12h31.29.398287 -0400,
sounds/08d_filtrar.wav,CVC,Stressed,Mismatch,past,num_2,0.0,0.2,0.7526856695589441,0.87808115762362,1.118901843962886,1.172598812485867,101,40,41,42,43,44,0,0.552685669558944,0.67808115762362,0.918901843962886,0.972598812485867,08d_filtrar.wav,,d,,1,1,0,,,,,None,8,left,0,11.589211800004705,None,,,,,,,0,1,1,15,4620.2612199,,,,,,,,,,,,,,,,,,,,,,,4631.8609159999905,4631.861009,,,,4620.249678499997,4620.254911666667,4620.2612199,4620.2612199,0.00594120001187548,0.018410400007269345,4622.021682699997,4631.857940799993,left,0,11.589211800004705,None,None,,,,,,,,,,,,5_L2,001,2025-04-22_12h31.12.703,LangExperimentstress,2024.2.4,60.22097484691282,2025-04-22 12h31.29.398287 -0400,
sounds/25b_ganar.wav,CVC,Unstressed,Mismatch,present,num_1,0.0,0.2,1.152097938368055,1.15990068760488,1.28904165650454,1.37272500435153,101,20,21,22,23,24,0,0.952097938368055,0.95990068760488,1.08904165650454,1.17272500435153,25b_ganar.wav,,b,,2,2,0,,,,,None,25,right,0,8.683265800005756,None,,,,,,,0,2,2,8,4631.8802103999915,,,,,,,,,,,,,,,,,,,,,,,4640.577710199999,4640.577802699991,,,,4631.868180599995,4631.871818166666,4631.8802103999915,4631.8802103999915,0.007200299995020032,0.02046479999262374,4634.222151099995,4640.574627099995,right,0,8.683265800005756,None,None,,,,,,,,,,,,5_L2,001,2025-04-22_12h31.12.703,LangExperimentstress,2024.2.4,60.22097484691282,2025-04-22 12h31.29.398287 -0400,
sounds/37b_pasar.wav,CVC,Unstressed,Mismatch,present,num_1,0.0,0.2,1.033132486979166,1.052087565104166,1.159499674479166,1.27702115885416,101,20,21,22,23,24,0,0.833132486979166,0.852087565104166,0.959499674479166,1.07702115885416,37b_pasar.wav,,b,,3,3,0,,,,,None,37,right,0,4.632071999993059,None,,,,,,,0,3,3,23,4640.595772500004,,,,,,,,,,,,,,,,,,,,,,,4645.245439199993,4645.245553899993,,,,4640.584844500001,4640.588673866663,4640.595772500004,4640.595772500004,0.007062200005748309,0.019139399999403395,4642.705871099999,4645.241613999999,right,0,4.632071999993059,None,None,,,,,,,,,,,,5_L2,001,2025-04-22_12h31.12.703,LangExperimentstress,2024.2.4,60.22097484691282,2025-04-22 12h31.29.398287 -0400,
sounds/21a_mezclar.wav,CVC,Stressed,Match,present,num_1,0.0,0.2,0.78,0.9121902777777772,1.20214212962962,1.27,101,10,11,12,13,14,0,0.58,0.712190277777777,1.00214212962962,1.07,21a_mezclar.wav,,a,,4,4,0,,,,,None,21,left,0,23.945168399994145,None,,,,,,,0,4,4,27,4645.2659803999995,,,,,,,,,,,,,,,,,,,,,,,4669.2271833999985,4669.227255799997,,,,4645.254290600002,4645.255593266662,4645.2659803999995,4645.2659803999995,0.008829500002320856,0.02151350000349339,4647.288735599999,4669.224751999995,left,0,23.945168399994145,None,None,,,,,,,,,,,,5_L2,001,2025-04-22_12h31.12.703,LangExperimentstress,2024.2.4,60.22097484691282,2025-04-22 12h31.29.398287 -0400,
sounds/31d_tocar.wav,CVC,Stressed,Mismatch,past,num_2,0.0,0.2,0.8493931756807,0.8650112062639721,1.006860547391531,1.049162047334928,101,40,41,42,43,44,0,0.6493931756807,0.665011206263972,0.806860547391531,0.849162047334928,31d_tocar.wav,,d,,5,5,0,,,,,None,31,left,0,3.982781500002602,None,,,,,,,0,5,5,30,4669.244238899992,,,,,,,,,,,,,,,,,,,,,,,4673.245090700002,4673.245189499998,,,,4669.2324601,4669.239240766667,4669.244238899992,4669.244238899992,0.005224100008490495,0.01800369999546092,4671.139165200002,4673.241508699997,left,0,3.982781500002602,None,None,,,,,,,,,,,,5_L2,001,2025-04-22_12h31.12.703,LangExperimentstress,2024.2.4,60.22097484691282,2025-04-22 12h31.29.398287 -0400,
sounds/26a_bajar.wav,CVC,Stressed,Match,present,num_1,0.0,0.2,0.77,0.8999999999999999,1.03,1.171181705729166,101,10,11,12,13,14,0,0.57,0.7,0.83,0.971181705729166,26a_bajar.wav,,a,,6,6,0,,,,,None,26,left,0,4.901033999994979,None,,,,,,,0,6,6,13,4673.262646100004,,,,,,,,,,,,,,,,,,,,,,,4678.178987499996,4678.179070500002,,,,4673.251047099999,4673.255855766667,4673.262646100004,4673.262646100004,0.00586789999215398,0.018385499992291443,4675.338955899992,4678.175183200001,left,0,4.901033999994979,None,None,,,,,,,,,,,,5_L2,001,2025-04-22_12h31.12.703,LangExperimentstress,2024.2.4,60.22097484691282,2025-04-22 12h31.29.398287 -0400,
sounds/39b_manchar.wav,CVC,Unstressed,Mismatch,present,num_1,0.0,0.2,0.81,0.91203755787037,1.140584317129629,1.2139708912037,101,20,21,22,23,24,0,0.61,0.71203755787037,0.940584317129629,1.0139708912037,39b_manchar.wav,,b,,7,7,0,,,,,None,39,left,0,15.308815699987463,None,,,,,,,0,7,7,7,4678.197765099991,,,,,,,,,,,,,,,,,,,,,,,4693.513743200005,4693.513836099999,,,,4678.1863648,4678.189399566665,4678.197765099991,4678.197765099991,0.0073154999990947545,0.019821900001261383,4680.455760700002,4693.509526499998,left,0,15.308815699987463,None,None,,,,,,,,,,,,5_L2,001,2025-04-22_12h31.12.703,LangExperimentstress,2024.2.4,60.22097484691282,2025-04-22 12h31.29.398287 -0400,
sounds/19a_marcar.wav,CVC,Stressed,Match,present,num_1,0.0,0.2,0.8400000000000001,0.97,1.245718359375,1.273519140625,101,10,11,12,13,14,0,0.64,0.77,1.045718359375,1.073519140625,19a_marcar.wav,,a,,8,8,0,,,,,None,19,right,0,18.871242199995322,None,,,,,,,0,8,8,19,4693.532669499997,,,,,,,,,,,,,,,,,,,,,,,4712.412714299993,4712.4127974,,,,4693.520965299991,4693.523380066665,4693.532669499997,4693.532669499997,0.007215100005851127,0.019925600005080923,4695.440848400001,4712.409843699992,right,0,18.871242199995322,None,None,,,,,,,,,,,,5_L2,001,2025-04-22_12h31.12.703,LangExperimentstress,2024.2.4,60.22097484691282,2025-04-22 12h31.29.398287 -0400,
sounds/38b_pagar.wav,CVC,Unstressed,Mismatch,present,num_1,0.0,0.2,1.166737304687499,1.185271158854166,1.29521061197916,1.4055712890624898,101,20,21,22,23,24,0,0.966737304687499,0.985271158854166,1.09521061197916,1.20557128906249,38b_pagar.wav,,b,,9,9,0,,,,,space,38,right,0,4.7019752000051085,None,34.81498450000072,None,,,,,0,9,9,17,4712.4292651,,,,,,,,,,,,,,,,,,,,,,,4717.146609799995,4751.977258300001,,,,4712.419211200002,4712.424089866665,4712.4292651,4712.4292651,0.006430699999327771,0.01738679999834858,4714.690910499994,4717.142999399992,right,0,4.7019752000051085,None,space,4717.157047599991,4717.157047599991,34.81498450000072,None,,,,,,,,5_L2,001,2025-04-22_12h31.12.703,LangExperimentstress,2024.2.4,60.22097484691282,2025-04-22 12h31.29.398287 -0400,
sounds/29a_pesar.wav,CVC,Stressed,Match,present,num_1,0.0,0.2,0.91328417532552,0.925531286730473,1.03,1.150619522602117,101,10,11,12,13,14,0,0.71328417532552,0.725531286730473,0.83,0.950619522602117,29a_pesar.wav,,a,,10,10,0,,,,,None,29,left,0,7.30006969999522,None,,,,,,,0,10,10,32,4751.998692399997,,,,,,,,,,,,,,,,,,,,,,,4759.313518700001,4759.31359569999,,,,4751.986483100001,4751.99146246666,4751.998692399997,4751.998692399997,0.009200200001941994,0.022463300003437325,4753.9070756,4759.309632000004,left,0,7.30006969999522,None,None,,,,,,,,,,,,5_L2,001,2025-04-22_12h31.12.703,LangExperimentstress,2024.2.4,60.22097484691282,2025-04-22 12h31.29.398287 -0400,
sounds/04c_plantar.wav,CVC,Unstressed,Match,past,num_2,0.0,0.2,0.862877574458911,0.9343518689653568,1.20493812332404,1.21897569287037,101,30,31,32,33,34,0,0.662877574458911,0.734351868965357,1.00493812332404,1.01897569287037,04c_plantar.wav,,c,,11,11,0,,,,,None,4,right,0,3.671376099999179,None,,,,,,,0,11,11,9,4759.332524999991,,,,,,,,,,,,,,,,,,,,,,,4763.014737899997,4763.014830100001,,,,4759.321352999992,4759.324186466667,4759.332524999991,4759.332524999991,0.007794899996952154,0.02005710000230465,4761.374862700002,4763.010556199995,right,0,3.671376099999179,None,None,,,,,,,,,,,,5_L2,001,2025-04-22_12h31.12.703,LangExperimentstress,2024.2.4,60.22097484691282,2025-04-22 12h31.29.398287 -0400,
sounds/05a_fumar.wav,CVC,Stressed,Match,present,num_1,0.0,0.2,1.15,1.36712555700231,1.48,1.56308830295138,101,10,11,12,13,14,0,0.95,1.16712555700231,1.28,1.36308830295138,05a_fumar.wav,,a,,12,12,0,,,,,None,5,left,0,23.95400330000848,None,,,,,,,0,12,12,38,4763.0333803999965,,,,,,,,,,,,,,,,,,,,,,,4786.998737899994,4786.9988323,,,,4763.022397299996,4763.024809766666,4763.0333803999965,4763.0333803999965,0.007487900002161041,0.019442399992840365,4765.391508599991,4786.994462300005,left,0,23.95400330000848,None,None,,,,,,,,,,,,5_L2,001,2025-04-22_12h31.12.703,LangExperimentstress,2024.2.4,60.22097484691282,2025-04-22 12h31.29.398287 -0400,
sounds/34c_formar.wav,CVC,Unstressed,Match,past,num_2,0.0,0.2,0.876373676215277,0.992687651909722,1.14,1.26319767795138,101,30,31,32,33,34,0,0.676373676215277,0.792687651909722,0.94,1.06319767795138,34c_formar.wav,,c,,13,13,0,,,,,None,34,right,0,17.785280500000226,None,,,,,,,0,13,13,2,4787.018637400004,,,,,,,,,,,,,,,,,,,,,,,4804.8159502999915,4804.816046199994,,,,4787.006995699994,4787.008583966661,4787.018637400004,4787.018637400004,0.008256699991761707,0.020894099987344816,4789.275282599992,4804.811856500004,right,0,17.785280500000226,None,None,,,,,,,,,,,,5_L2,001,2025-04-22_12h31.12.703,LangExperimentstress,2024.2.4,60.22097484691282,2025-04-22 12h31.29.398287 -0400,
sounds/06d_soplar.wav,CVC,Stressed,Mismatch,past,num_2,0.0,0.2,0.761291666666666,0.8899999999999999,1.102139687590422,1.166665581687644,101,40,41,42,43,44,0,0.561291666666666,0.69,0.902139687590422,0.966665581687644,06d_soplar.wav,,d,,14,14,0,,,,,None,6,right,0,4.985447600003681,None,,,,,,,0,14,14,16,4804.833020899998,,,,,,,,,,,,,,,,,,,,,,,4809.832999799997,4809.833093699999,,,,4804.8222281999915,4804.825974566662,4804.833020899998,4804.833020899998,0.006202899996424094,0.018071600003167987,4806.709038500005,4809.828854599997,right,0,4.985447600003681,None,None,,,,,,,,,,,,5_L2,001,2025-04-22_12h31.12.703,LangExperimentstress,2024.2.4,60.22097484691282,2025-04-22 12h31.29.398287 -0400,
sounds/03b_limpiar.wav,CVC,Unstressed,Mismatch,present,num_1,0.0,0.2,0.8500000000000001,0.932367621527777,1.26878515625,1.35808463541666,101,20,21,22,23,24,0,0.65,0.732367621527777,1.06878515625,1.15808463541666,03b_limpiar.wav,,b,,15,15,0,,,,,None,3,left,0,2.629537300002994,None,,,,,,,0,15,15,4,4809.853159199993,,,,,,,,,,,,,,,,,,,,,,,4812.4992069,4812.499337999994,,,,4809.840932399995,4809.842862966663,4809.853159199993,4809.853159199993,0.007935199988423847,0.021116499992785975,4811.992904600003,4812.495161400002,left,0,2.629537300002994,None,None,,,,,,,,,,,,5_L2,001,2025-04-22_12h31.12.703,LangExperimentstress,2024.2.4,60.22097484691282,2025-04-22 12h31.29.398287 -0400,
sounds/22d_dejar.wav,CVC,Stressed,Mismatch,past,num_2,0.0,0.2,0.8500000000000001,1.02,1.152543366608796,1.28794346788194,101,40,41,42,43,44,0,0.65,0.82,0.952543366608796,1.08794346788194,22d_dejar.wav,,d,,16,16,0,,,,,None,22,right,0,4.197168799990322,None,,,,,,,0,16,16,14,4812.517707999999,,,,,,,,,,,,,,,,,,,,,,,4816.732204300002,4816.73227919999,,,,4812.505964900003,4812.509274166663,4812.517707999999,4812.517707999999,0.006647599991993047,0.0193340999976499,4814.559131699993,4816.728681399996,right,0,4.197168799990322,None,None,,,,,,,,,,,,5_L2,001,2025-04-22_12h31.12.703,LangExperimentstress,2024.2.4,60.22097484691282,2025-04-22 12h31.29.398287 -0400,
sounds/12a_matar.wav,CVC,Stressed,Match,present,num_1,0.0,0.2,0.8400000000000001,0.96,1.17307472511574,1.186647497106481,101,10,11,12,13,14,0,0.64,0.76,0.97307472511574,0.986647497106481,12a_matar.wav,,a,,17,17,0,,,,,None,12,left,0,7.412456600010046,None,,,,,,,0,17,17,25,4816.750763699994,,,,,,,,,,,,,,,,,,,,,,,4824.182732999994,4824.182817699999,,,,4816.739377199992,4816.742673766657,4816.750763699994,4816.750763699994,0.007126099997549318,0.019502399998600595,4818.942709700001,4824.178532299993,left,0,7.412456600010046,None,None,,,,,,,,,,,,5_L2,001,2025-04-22_12h31.12.703,LangExperimentstress,2024.2.4,60.22097484691282,2025-04-22 12h31.29.398287 -0400,
sounds/23a_tomar.wav,CVC,Stressed,Match,present,num_1,0.0,0.2,0.9453179615162032,0.95,1.08,1.158644495081018,101,10,11,12,13,14,0,0.745317961516203,0.75,0.88,0.958644495081018,23a_tomar.wav,,a,,18,18,0,,,,,None,23,left,0,3.7547581999970134,None,,,,,,,0,18,18,39,4824.200774600002,,,,,,,,,,,,,,,,,,,,,,,4827.962039899998,4827.962071799993,,,,4824.189294600001,4824.192697666662,4824.200774600002,4824.200774600002,0.006502200005343184,0.019048900008783676,4826.109783799999,4827.960139499992,left,0,3.7547581999970134,None,None,,,,,,,,,,,,5_L2,001,2025-04-22_12h31.12.703,LangExperimentstress,2024.2.4,60.22097484691282,2025-04-22 12h31.29.398287 -0400,
sounds/20c_cubrir.wav,CVC,Unstressed,Match,past,num_2,0.0,0.2,0.980138641742621,1.01,1.192436112212021,1.28412143493692,101,30,31,32,33,34,0,0.780138641742621,0.81,0.992436112212021,1.08412143493692,20c_cubrir.wav,,c,,19,19,0,,,,,space,20,right,0,3.9714540999993915,None,18.548180099998717,None,,,,,0,19,19,31,4827.9757040999975,,,,,,,,,,,,,,,,,,,,,,,4831.966302400004,4850.529391999997,,,,4827.965001399993,4827.975528066661,4827.9757040999975,4827.9757040999975,0.002940100006526336,0.014324000003398396,4830.108890599993,4831.9622715000005,right,0,3.9714540999993915,None,space,4831.976149099995,4831.976149099995,18.548180099998717,None,,,,,,,,5_L2,001,2025-04-22_12h31.12.703,LangExperimentstress,2024.2.4,60.22097484691282,2025-04-22 12h31.29.398287 -0400,
sounds/28d_parar.wav,CVC,Stressed,Mismatch,past,num_2,0.0,0.2,0.8458860026041659,0.862313736979166,1.018194683159722,1.032797113715277,101,40,41,42,43,44,0,0.645886002604166,0.662313736979166,0.818194683159722,0.832797113715277,28d_parar.wav,,d,,20,20,0,,,,,None,28,right,0,6.5283976000064285,None,,,,,,,0,20,20,18,4850.547247099996,,,,,,,,,,,,,,,,,,,,,,,4857.081506799994,4857.081594599993,,,,4850.535585399994,4850.543581666661,4850.547247099996,4850.547247099996,0.006145299994386733,0.01905129999795463,4852.460049000001,4857.078221799995,right,0,6.5283976000064285,None,None,,,,,,,,,,,,5_L2,001,2025-04-22_12h31.12.703,LangExperimentstress,2024.2.4,60.22097484691282,2025-04-22 12h31.29.398287 -0400,
sounds/11a_pegar.wav,CVC,Stressed,Match,present,num_1,0.0,0.2,0.8182808977343741,0.831294515585661,0.98,1.012063288108519,101,10,11,12,13,14,0,0.618280897734374,0.631294515585661,0.78,0.812063288108519,11a_pegar.wav,,a,,21,21,0,,,,,None,11,left,0,5.704511000003549,None,,,,,,,0,21,21,3,4857.098853399992,,,,,,,,,,,,,,,,,,,,,,,4862.816637800002,4862.8167216,,,,4857.087457699992,4857.093060266667,4857.098853399992,4857.098853399992,0.005875100003322586,0.018330300008528866,4859.043714600004,4862.812630300003,left,0,5.704511000003549,None,None,,,,,,,,,,,,5_L2,001,2025-04-22_12h31.12.703,LangExperimentstress,2024.2.4,60.22097484691282,2025-04-22 12h31.29.398287 -0400,
sounds/18b_cumplir.wav,CVC,Unstressed,Mismatch,present,num_1,0.0,0.2,1.2408027271412,1.25568597366898,1.46256310040509,1.54144430700231,101,20,21,22,23,24,0,1.0408027271412,1.05568597366898,1.26256310040509,1.34144430700231,18b_cumplir.wav,,b,,22,22,0,,,,,None,18,left,0,6.73747180000646,None,,,,,,,0,22,22,29,4862.833681799995,,,,,,,,,,,,,,,,,,,,,,,4869.5814617,4869.581515500002,,,,4862.823226599998,4862.8268658666675,4862.833681799995,4862.833681799995,0.006519599992316216,0.018030899998848327,4865.010587199999,4869.578532999993,left,0,6.73747180000646,None,None,,,,,,,,,,,,5_L2,001,2025-04-22_12h31.12.703,LangExperimentstress,2024.2.4,60.22097484691282,2025-04-22 12h31.29.398287 -0400,
sounds/32d_pulsar.wav,CVC,Stressed,Mismatch,past,num_2,0.0,0.2,0.796440212673611,0.8294641710069439,0.99,1.097783832465277,101,40,41,42,43,44,0,0.596440212673611,0.629464171006944,0.79,0.897783832465277,32d_pulsar.wav,,d,,23,23,0,,,,,None,32,right,0,3.53371530000004,None,,,,,,,0,23,23,24,4869.596742199996,,,,,,,,,,,,,,,,,,,,,,,4873.150294599996,4873.1503730999975,,,,4869.585493699997,4869.593369066661,4869.596742199996,4869.596742199996,0.004042799992021173,0.016021599993109703,4871.4104840999935,4873.1465191000025,right,0,3.53371530000004,None,None,,,,,,,,,,,,5_L2,001,2025-04-22_12h31.12.703,LangExperimentstress,2024.2.4,60.22097484691282,2025-04-22 12h31.29.398287 -0400,
sounds/24d_mirar.wav,CVC,Stressed,Mismatch,past,num_2,0.0,0.2,0.71,0.8119545789930551,0.9389863642939812,0.9746780743634248,101,40,41,42,43,44,0,0.51,0.611954578993055,0.738986364293981,0.774678074363425,24d_mirar.wav,,d,,24,24,0,,,,,None,24,right,0,17.87595919999876,None,,,,,,,0,24,24,11,4873.167110599999,,,,,,,,,,,,,,,,,,,,,,,4891.0509370999935,4891.0510286999925,,,,4873.156118400002,4873.160807766664,4873.167110599999,4873.167110599999,0.005766799993580207,0.017750300001353025,4874.877393399991,4891.046775499999,right,0,17.87595919999876,None,None,,,,,,,,,,,,5_L2,001,2025-04-22_12h31.12.703,LangExperimentstress,2024.2.4,60.22097484691282,2025-04-22 12h31.29.398287 -0400,
sounds/02c_buscar.wav,CVC,Unstressed,Match,past,num_2,0.0,0.2,0.8700000000000001,1.07,1.26,1.40703946035879,101,30,31,32,33,34,0,0.67,0.87,1.06,1.20703946035879,02c_buscar.wav,,c,,25,25,0,,,,,None,2,right,0,4.987966699991375,None,,,,,,,0,25,25,34,4891.070892599993,,,,,,,,,,,,,,,,,,,,,,,4896.068832199991,4896.068925200001,,,,4891.059267599994,4891.060788766659,4891.070892599993,4891.070892599993,0.008334300000569783,0.021140600001672283,4893.211087000003,4896.064460399997,right,0,4.987966699991375,None,None,,,,,,,,,,,,5_L2,001,2025-04-22_12h31.12.703,LangExperimentstress,2024.2.4,60.22097484691282,2025-04-22 12h31.29.398287 -0400,
sounds/35b_secar.wav,CVC,Unstressed,Mismatch,present,num_1,0.0,0.2,0.8990044921875,1.025708658854166,1.179689416956018,1.20652606336805,101,20,21,22,23,24,0,0.6990044921875,0.825708658854166,0.979689416956018,1.00652606336805,35b_secar.wav,,b,,26,26,0,,,,,None,35,right,0,19.714919599995483,None,,,,,,,0,26,26,5,4896.088695899991,,,,,,,,,,,,,,,,,,,,,,,4915.819440299994,4915.819541199991,,,,4896.077519099999,4896.078035366667,4896.088695899991,4896.088695899991,0.008624499998404644,0.020957800006726757,4898.227545799993,4915.815109499992,right,0,19.714919599995483,None,None,,,,,,,,,,,,5_L2,001,2025-04-22_12h31.12.703,LangExperimentstress,2024.2.4,60.22097484691282,2025-04-22 12h31.29.398287 -0400,
sounds/27c_tirar.wav,CVC,Unstressed,Match,past,num_2,0.0,0.2,0.8119442057291659,0.8307495153356481,0.9885306495949072,0.998621303530092,101,30,31,32,33,34,0,0.611944205729166,0.630749515335648,0.788530649594907,0.798621303530092,27c_tirar.wav,,c,,27,27,0,,,,,None,27,right,0,4.404589199999464,None,,,,,,,0,27,27,10,4915.838002699995,,,,,,,,,,,,,,,,,,,,,,,4920.251271899993,4920.251350599996,,,,4915.826171299996,4915.828404466669,4915.838002699995,4915.838002699995,0.00675309999496676,0.019485899989376776,4917.845671000003,4920.247525600003,right,0,4.404589199999464,None,None,,,,,,,,,,,,5_L2,001,2025-04-22_12h31.12.703,LangExperimentstress,2024.2.4,60.22097484691282,2025-04-22 12h31.29.398287 -0400,
sounds/30a_fundar.wav,CVC,Stressed,Match,present,num_1,0.0,0.2,0.77,0.91,1.112685546875,1.12,101,10,11,12,13,14,0,0.57,0.71,0.912685546875,0.92,30a_fundar.wav,,a,,28,28,0,,,,,None,30,left,0,4.312144499999704,None,,,,,,,0,28,28,36,4920.267405199993,,,,,,,,,,,,,,,,,,,,,,,4924.599887499993,4924.599963200002,,,,4920.256251500003,4920.261745966669,4920.267405199993,4920.267405199993,0.0049008000059984624,0.01689940001233481,4922.428961999991,4924.5969589000015,left,0,4.312144499999704,None,None,,,,,,,,,,,,5_L2,001,2025-04-22_12h31.12.703,LangExperimentstress,2024.2.4,60.22097484691282,2025-04-22 12h31.29.398287 -0400,
sounds/13c_montar.wav,CVC,Unstressed,Match,past,num_2,0.0,0.2,0.8800000000000001,0.98,1.24543012152777,1.2594709201388798,101,30,31,32,33,34,0,0.68,0.78,1.04543012152777,1.05947092013888,13c_montar.wav,,c,,29,29,0,,,,,space,13,right,0,7.948105799994664,None,18.640577799989842,None,,,,,0,29,29,33,4924.615491599994,,,,,,,,,,,,,,,,,,,,,,,4932.583806800001,4951.247534599999,,,,4924.605158499995,4924.611541566661,4924.615491599994,4924.615491599994,0.005204800007049926,0.01633320000837557,4926.911426899998,4932.580131800001,right,0,7.948105799994664,None,space,4932.594881099998,4932.594881099998,18.640577799989842,None,,,,,,,,5_L2,001,2025-04-22_12h31.12.703,LangExperimentstress,2024.2.4,60.22097484691282,2025-04-22 12h31.29.398287 -0400,
sounds/40c_gastar.wav,CVC,Unstressed,Match,past,num_2,0.0,0.2,0.8300000000000001,0.8400000000000001,1.163436328125,1.183149609375,101,30,31,32,33,34,0,0.63,0.64,0.963436328125,0.983149609375,40c_gastar.wav,,c,,30,30,0,,,,,None,40,right,0,8.211943999995128,None,,,,,,,0,30,30,0,4951.264174900003,,,,,,,,,,,,,,,,,,,,,,,4959.4862326,4959.486325899998,,,,4951.253171599994,4951.2621502666625,4951.264174900003,4951.264174900003,0.005615500005660579,0.01755010000488255,4953.379191100001,4959.481754699998,right,0,8.211943999995128,None,None,,,,,,,,,,,,5_L2,001,2025-04-22_12h31.12.703,LangExperimentstress,2024.2.4,60.22097484691282,2025-04-22 12h31.29.398287 -0400,
sounds/09c_cargar.wav,CVC,Unstressed,Match,past,num_2,0.0,0.2,0.81286744068287,0.8382251229745361,1.032634020543981,1.090594437210648,101,30,31,32,33,34,0,0.61286744068287,0.638225122974536,0.832634020543981,0.890594437210648,09c_cargar.wav,,c,,31,31,0,,,,,None,9,right,0,3.3870080999913625,None,,,,,,,0,31,31,28,4959.503712099991,,,,,,,,,,,,,,,,,,,,,,,4962.902337099993,4962.902430799993,,,,4959.492771499994,4959.495728166661,4959.503712099991,4959.503712099991,0.006463599987910129,0.018366299991612323,4961.429552200003,4962.898331100005,right,0,3.3870080999913625,None,None,,,,,,,,,,,,5_L2,001,2025-04-22_12h31.12.703,LangExperimentstress,2024.2.4,60.22097484691282,2025-04-22 12h31.29.398287 -0400,
sounds/16a_llevar.wav,CVC,Stressed,Match,present,num_1,0.0,0.2,0.929084516317274,0.964936524692279,1.08,1.131864014418682,101,10,11,12,13,14,0,0.729084516317274,0.764936524692279,0.88,0.931864014418682,16a_llevar.wav,,a,,32,32,0,,,,,None,16,left,0,2.5949159000010695,None,,,,,,,0,32,32,21,4962.920077200004,,,,,,,,,,,,,,,,,,,,,,,4965.534725899997,4965.534833199999,,,,4962.9086178,4962.912490066668,4962.920077200004,4962.920077200004,0.006201699987286702,0.01861030000145547,4964.829096000001,4965.531120899992,left,0,2.5949159000010695,None,None,,,,,,,,,,,,5_L2,001,2025-04-22_12h31.12.703,LangExperimentstress,2024.2.4,60.22097484691282,2025-04-22 12h31.29.398287 -0400,
sounds/01d_salvar.wav,CVC,Stressed,Mismatch,past,num_2,0.0,0.2,0.8500000000000001,0.996069502314814,1.23,1.29,101,40,41,42,43,44,0,0.65,0.796069502314814,1.03,1.09,01d_salvar.wav,,d,,33,33,0,,,,,None,1,right,0,6.747987099995953,None,,,,,,,0,33,33,37,4965.550657999993,,,,,,,,,,,,,,,,,,,,,,,4972.319237399992,4972.319325499993,,,,4965.540905499991,4965.545634566664,4965.550657999993,4965.550657999993,0.006090599999879487,0.016737099998863414,4967.612732599999,4972.315040999994,right,0,6.747987099995953,None,None,,,,,,,,,,,,5_L2,001,2025-04-22_12h31.12.703,LangExperimentstress,2024.2.4,60.22097484691282,2025-04-22 12h31.29.398287 -0400,
sounds/36c_bordar.wav,CVC,Unstressed,Match,past,num_2,0.0,0.2,1.0,1.078468243634259,1.3288624855324,1.3414992042824,101,30,31,32,33,34,0,0.8,0.878468243634259,1.1288624855324,1.1414992042824,36c_bordar.wav,,c,,34,34,0,,,,,None,36,right,0,6.578357999998843,None,,,,,,,0,34,34,1,4972.336120799999,,,,,,,,,,,,,,,,,,,,,,,4978.936125299995,4978.936205499995,,,,4972.325722199996,4972.329256266665,4972.336120799999,4972.336120799999,0.006418099990696646,0.01769130000320729,4974.61318,4978.932024599999,right,0,6.578357999998843,None,None,,,,,,,,,,,,5_L2,001,2025-04-22_12h31.12.703,LangExperimentstress,2024.2.4,60.22097484691282,2025-04-22 12h31.29.398287 -0400,
sounds/10d_vender.wav,CVC,Stressed,Mismatch,past,num_2,0.0,0.2,0.832830209056713,0.8775468199411529,1.109501330306288,1.158928471023364,101,40,41,42,43,44,0,0.632830209056713,0.677546819941153,0.909501330306288,0.958928471023364,10d_vender.wav,,d,,35,35,0,,,,,None,10,right,0,9.312223300003097,None,,,,,,,0,35,35,12,4978.9551610999915,,,,,,,,,,,,,,,,,,,,,,,4988.286370699992,4988.2864518999995,,,,4978.943033999996,4978.946145466663,4978.9551610999915,4978.9551610999915,0.00685459999658633,0.019887999995262362,4980.8632830999995,4988.2824813999905,right,0,9.312223300003097,None,None,,,,,,,,,,,,5_L2,001,2025-04-22_12h31.12.703,LangExperimentstress,2024.2.4,60.22097484691282,2025-04-22 12h31.29.398287 -0400,
sounds/17d_tragar.wav,CVC,Stressed,Mismatch,past,num_2,0.0,0.2,1.070609360532407,1.117973654513888,1.30915316840277,1.35458539534397,101,40,41,42,43,44,0,0.870609360532407,0.917973654513888,1.10915316840277,1.15458539534397,17d_tragar.wav,,d,,36,36,0,,,,,None,17,right,0,15.648271300000488,None,,,,,,,0,36,36,26,4988.307402499995,,,,,,,,,,,,,,,,,,,,,,,5003.969925700003,5003.970019699991,,,,4988.293888999993,4988.296727866666,4988.307402499995,4988.307402499995,0.007515300007071346,0.02203150000423193,4990.613586499996,5003.966700799996,right,0,15.648271300000488,None,None,,,,,,,,,,,,5_L2,001,2025-04-22_12h31.12.703,LangExperimentstress,2024.2.4,60.22097484691282,2025-04-22 12h31.29.398287 -0400,
sounds/07c_tumbar.wav,CVC,Unstressed,Match,past,num_2,0.0,0.2,0.9084024930273432,0.9247360728973012,1.143289673625005,1.154847989033482,101,30,31,32,33,34,0,0.708402493027343,0.724736072897301,0.943289673625005,0.954847989033482,07c_tumbar.wav,,c,,37,37,0,,,,,None,7,right,0,10.742704099990078,None,,,,,,,0,37,37,6,5003.988589200002,,,,,,,,,,,,,,,,,,,,,,,5014.752362500003,5014.752437599993,,,,5003.976608800003,5003.980409466665,5003.988589200002,5003.988589200002,0.006609699994442053,0.019466300000203773,5005.947035099991,5014.749324000004,right,0,10.742704099990078,None,None,,,,,,,,,,,,5_L2,001,2025-04-22_12h31.12.703,LangExperimentstress,2024.2.4,60.22097484691282,2025-04-22 12h31.29.398287 -0400,
sounds/15b_partir.wav,CVC,Unstressed,Mismatch,present,num_1,0.0,0.2,0.826865400752314,0.842973894883327,1.1042888772729471,1.120815958498066,101,20,21,22,23,24,0,0.626865400752314,0.642973894883327,0.904288877272947,0.920815958498066,15b_partir.wav,,b,,38,38,0,,,,,None,15,right,0,4.129403300001286,None,,,,,,,0,38,38,22,5014.7692388,,,,,,,,,,,,,,,,,,,,,,,5018.918453999999,5018.918563899992,,,,5014.7583473999985,5014.76354826667,5014.7692388,5014.7692388,0.005923500008066185,0.017709300009300932,5016.8301546,5018.915712999995,right,0,4.129403300001286,None,None,,,,,,,,,,,,5_L2,001,2025-04-22_12h31.12.703,LangExperimentstress,2024.2.4,60.22097484691282,2025-04-22 12h31.29.398287 -0400,
sounds/14b_borrar.wav,CVC,Unstressed,Mismatch,present,num_1,0.0,0.2,0.72,0.770187630208333,0.851961241319444,0.964399956597222,101,20,21,22,23,24,0,0.52,0.570187630208333,0.651961241319444,0.764399956597222,14b_borrar.wav,,b,,39,39,0,,,,,None,14,left,0,3.8535586999933003,None,,,,,,,0,39,39,20,5018.934125200001,,,,,,,,,,,,,,,,,,,,,,,5022.801436599999,5022.801495599997,,,,5018.9235725000035,5018.930191566662,5018.934125200001,5018.934125200001,0.005013400004827417,0.016277400005492382,5020.880310099994,5022.7988912,left,0,3.8535586999933003,None,None,,,,,,,,,,,,5_L2,001,2025-04-22_12h31.12.703,LangExperimentstress,2024.2.4,60.22097484691282,2025-04-22 12h31.29.398287 -0400,
,,,,,,,,,,,,,,,,,,,,,,,,,,,,,,,,,,,,,,,,,,,,,,,,,,,,,,,,,,,,,,,,,,,,,,,,,,,,,,,,,,,,,,,,,,,,,,,5022.8016699,5022.813196100004,5022.813196100004,5028.7836886000005,space,5.958477099993615,None,5_L2,001,2025-04-22_12h31.12.703,LangExperimentstress,2024.2.4,60.22097484691282,2025-04-22 12h31.29.398287 -0400,
