sounds,syll,stress_unstress,suffix,present_past,corrAns,trigger_item,trigger_senonset,trigger_verbsonset,trigger_1_F0,trigger_suffix,trigger_2_F0,ID_item,ID_senonset,ID_verbonset,ID_1_F0,ID_suffix,ID_2_F0,ms_senonset,ms_verbonset,ms_1_F0,ms_suffix,ms_2_F0,file_name,sentence,cond,combo,thisN,thisTrialN,thisRepN,key_resp_4.keys,key_resp_4.corr,key_resp_4.rt,key_resp_4.duration,key_resp_5.keys,item_id,key_resp_2.keys,key_resp_2.corr,key_resp_2.rt,key_resp_2.duration,key_resp_5.rt,key_resp_5.duration,practice_trials.thisRepN,practice_trials.thisTrialN,practice_trials.thisN,practice_trials.thisIndex,experimental_trials.thisRepN,experimental_trials.thisTrialN,experimental_trials.thisN,experimental_trials.thisIndex,thisRow.t,notes,instructions.started,instr.started,key_resp.started,instructions.stopped,key_resp.keys,key_resp.rt,key_resp.duration,init_practice.started,init_practice.stopped,test_practice.started,test_sound_2.started,key_resp_4.started,polygon.started,serialPort_item_2.started,serialPort_item_2.stopped,test_sound_2.stopped,test_practice.stopped,practice_trials.key_resp_4.keys,practice_trials.key_resp_4.corr,practice_trials.key_resp_4.rt,practice_trials.key_resp_4.duration,takeabreak.started,takeabreak.stopped,practice_trials.key_resp_5.keys,init_trials.started,init_trials.stopped,test.started,test_sound.started,key_resp_2.started,polygon_2.started,serialPort_item.started,serialPort_item.stopped,test_sound.stopped,test.stopped,experimental_trials.key_resp_2.keys,experimental_trials.key_resp_2.corr,experimental_trials.key_resp_2.rt,experimental_trials.key_resp_2.duration,experimental_trials.key_resp_5.keys,text_3.started,key_resp_5.started,experimental_trials.key_resp_5.rt,experimental_trials.key_resp_5.duration,Thanks.started,text_2.started,key_resp_thanks.started,Thanks.stopped,key_resp_thanks.keys,key_resp_thanks.rt,key_resp_thanks.duration,participant,session,date,expName,psychopyVersion,frameRate,expStart,
,,,,,,,,,,,,,,,,,,,,,,,,,,,,,,,,,,,,,,,,,,,,,,,,,,,,0.0030722999945282936,0.01579819998005405,0.01579819998005405,9860.719135199994,space,9860.682480899995,None,,,,,,,,,,,,,,,,,,,,,,,,,,,,,,,,,,,,,,,,,,,,7_L2,001,2025-04-23_13h04.41.794,LangExperimentstress,2024.2.4,59.94754590269487,2025-04-23 13h04.51.434681 -0400,
,,,,,,,,,,,,,,,,,,,,,,,,,,,,,,,,,,,,,,,,,,,,,,,,,,,,,,,,,,,9860.719258999976,9860.720016799984,,,,,,,,,,,,,,,,,,,,,,,,,,,,,,,,,,,,,,,,,,7_L2,001,2025-04-23_13h04.41.794,LangExperimentstress,2024.2.4,59.94754590269487,2025-04-23 13h04.51.434681 -0400,
sounds/p4d_cortar.wav,CVC,Stressed,Mismatch,past,num_2,0.0,0.205513,0.8629519999999999,0.984841,1.219715,1.27,101,40,41,42,43,44,0.005513,0.662952,0.784841,1.019715,1.07,p4d_cortar.wav,p4,d,p4d,0,0,0,left,0,3.6152669000148308,None,None,,,,,,,,0,0,0,3,,,,,9860.746170899976,,,,,,,,,,,9860.736162899993,9860.748868999985,9860.746170899976,9860.746170899976,0.016150599985849112,0.026718799985246733,9863.265330399998,9864.36765,left,0,3.6152669000148308,None,9864.372125199996,9864.372198899975,None,,,,,,,,,,,,,,,,,,,,,,,,,,,7_L2,001,2025-04-23_13h04.41.794,LangExperimentstress,2024.2.4,59.94754590269487,2025-04-23 13h04.51.434681 -0400,
sounds/p3c_saltar.wav,CVC,Unstressed,Match,past,num_2,0.0,0.205513,0.8629519999999999,0.984841,1.219715,1.27,101,30,31,32,33,34,0.005513,0.662952,0.784841,1.019715,1.07,p3c_saltar.wav,p3,c,p3c,1,1,0,right,0,4.583456199994544,None,None,,,,,,,,0,1,1,2,,,,,9864.386733799998,,,,,,,,,,,9864.376596199989,9864.382339466658,9864.386733799998,9864.386733799998,0.004404899984365329,0.015541500004474074,9866.46539139998,9868.984633899992,right,0,4.583456199994544,None,9868.989197099989,9868.989288299985,None,,,,,,,,,,,,,,,,,,,,,,,,,,,7_L2,001,2025-04-23_13h04.41.794,LangExperimentstress,2024.2.4,59.94754590269487,2025-04-23 13h04.51.434681 -0400,
sounds/p1a_saltar.wav,CVC,Stressed,Match,present,num_1,0.0,0.205513,0.8629519999999999,0.984841,1.219715,1.27,101,10,11,12,13,14,0.005513,0.662952,0.784841,1.019715,1.07,p1a_saltar.wav,p1,a,p1a,2,2,0,right,0,3.8979016999946907,None,None,,,,,,,,0,2,2,0,,,,,9869.007082299999,,,,,,,,,,,9868.99620319999,9868.998671666664,9869.007082299999,9869.007082299999,0.006986899999901652,0.018875999987358227,9871.248581199994,9872.917948999995,right,0,3.8979016999946907,None,9872.921508899977,9872.92158569998,None,,,,,,,,,,,,,,,,,,,,,,,,,,,7_L2,001,2025-04-23_13h04.41.794,LangExperimentstress,2024.2.4,59.94754590269487,2025-04-23 13h04.51.434681 -0400,
sounds/p2b_cortar.wav,CVC,Unstressed,Mismatch,present,num_1,0.0,0.205513,0.8629519999999999,0.984841,1.219715,1.27,101,20,21,22,23,24,0.005513,0.662952,0.784841,1.019715,1.07,p2b_cortar.wav,p2,b,p2b,3,3,0,right,0,6.327807699999539,None,None,,,,,,,,0,3,3,1,,,,,9872.937108599988,,,,,,,,,,,9872.926902099978,9872.932293366644,9872.937108599988,9872.937108599988,0.005329599982360378,0.016406499984441325,9875.199387899978,9879.268166199996,right,0,6.327807699999539,None,9879.27208569998,9879.272174399986,None,,,,,,,,,,,,,,,,,,,,,,,,,,,7_L2,001,2025-04-23_13h04.41.794,LangExperimentstress,2024.2.4,59.94754590269487,2025-04-23 13h04.51.434681 -0400,
,,,,,,,,,,,,,,,,,,,,,,,,,,,,,,,,,,,,,,,,,,,,,,,,,,,,9879.272406999982,9879.282107899984,9879.282107899984,9936.91926939998,space,57.62418899999466,None,,,,,,,,,,,,,,,,,,,,,,,,,,,,,,,,,,,,,,,,,,,,7_L2,001,2025-04-23_13h04.41.794,LangExperimentstress,2024.2.4,59.94754590269487,2025-04-23 13h04.51.434681 -0400,
,,,,,,,,,,,,,,,,,,,,,,,,,,,,,,,,,,,,,,,,,,,,,,,,,,,,,,,,,,,,,,,,,,,,,,,,,,,,9936.919362299988,9936.920278199977,,,,,,,,,,,,,,,,,,,,,,,,,7_L2,001,2025-04-23_13h04.41.794,LangExperimentstress,2024.2.4,59.94754590269487,2025-04-23 13h04.51.434681 -0400,
sounds/27c_tirar.wav,CVC,Unstressed,Match,past,num_2,0.0,0.2,0.8119442057291659,0.8307495153356481,0.9885306495949072,0.998621303530092,101,30,31,32,33,34,0,0.611944205729166,0.630749515335648,0.788530649594907,0.798621303530092,27c_tirar.wav,,c,,0,0,0,,,,,None,27,left,0,4.009633300011046,None,,,,,,,0,0,0,10,9936.950735299994,,,,,,,,,,,,,,,,,,,,,,,9940.973847099987,9940.973930699984,,,,9936.941410200001,9936.950178733307,9936.950735299994,9936.950735299994,0.02111599998897873,0.03101569999125786,9938.9667165,9940.969524999993,left,0,4.009633300011046,None,None,,,,,,,,,,,,7_L2,001,2025-04-23_13h04.41.794,LangExperimentstress,2024.2.4,59.94754590269487,2025-04-23 13h04.51.434681 -0400,
sounds/06d_soplar.wav,CVC,Stressed,Mismatch,past,num_2,0.0,0.2,0.761291666666666,0.8899999999999999,1.102139687590422,1.166665581687644,101,40,41,42,43,44,0,0.561291666666666,0.69,0.902139687590422,0.966665581687644,06d_soplar.wav,,d,,1,1,0,,,,,None,6,right,0,3.2742370999767445,None,,,,,,,0,1,1,16,9940.990210899996,,,,,,,,,,,,,,,,,,,,,,,9944.27396999998,9944.274059999996,,,,9940.97943919999,9940.983741566659,9940.990210899996,9940.990210899996,0.005520799983059987,0.01715859997784719,9942.867334299983,9944.269837,right,0,3.2742370999767445,None,None,,,,,,,,,,,,7_L2,001,2025-04-23_13h04.41.794,LangExperimentstress,2024.2.4,59.94754590269487,2025-04-23 13h04.51.434681 -0400,
sounds/26a_bajar.wav,CVC,Stressed,Match,present,num_1,0.0,0.2,0.77,0.8999999999999999,1.03,1.171181705729166,101,10,11,12,13,14,0,0.57,0.7,0.83,0.971181705729166,26a_bajar.wav,,a,,2,2,0,,,,,None,26,right,0,4.092070199985756,None,,,,,,,0,2,2,13,9944.292364699999,,,,,,,,,,,,,,,,,,,,,,,9948.390241099987,9948.390332799987,,,,9944.281867299986,9944.283961766665,9944.292364699999,9944.292364699999,0.00783340001362376,0.019184400007361546,9946.36701669998,9948.386769399978,right,0,4.092070199985756,None,None,,,,,,,,,,,,7_L2,001,2025-04-23_13h04.41.794,LangExperimentstress,2024.2.4,59.94754590269487,2025-04-23 13h04.51.434681 -0400,
sounds/18b_cumplir.wav,CVC,Unstressed,Mismatch,present,num_1,0.0,0.2,1.2408027271412,1.25568597366898,1.46256310040509,1.54144430700231,101,20,21,22,23,24,0,1.0408027271412,1.05568597366898,1.26256310040509,1.34144430700231,18b_cumplir.wav,,b,,3,3,0,,,,,None,18,right,0,2.6471808000060264,None,,,,,,,0,3,3,29,9948.410101199988,,,,,,,,,,,,,,,,,,,,,,,9951.074404499988,9951.074493699998,,,,9948.398961699975,9948.400471266654,9948.410101199988,9948.410101199988,0.008726400003070012,0.020736900012707338,9950.583509299991,9951.069974199985,right,0,2.6471808000060264,None,None,,,,,,,,,,,,7_L2,001,2025-04-23_13h04.41.794,LangExperimentstress,2024.2.4,59.94754590269487,2025-04-23 13h04.51.434681 -0400,
sounds/36c_bordar.wav,CVC,Unstressed,Match,past,num_2,0.0,0.2,1.0,1.078468243634259,1.3288624855324,1.3414992042824,101,30,31,32,33,34,0,0.8,0.878468243634259,1.1288624855324,1.1414992042824,36c_bordar.wav,,c,,4,4,0,,,,,None,36,left,0,3.1943399000156205,None,,,,,,,0,4,4,1,9951.09422509998,,,,,,,,,,,,,,,,,,,,,,,9954.307404799998,9954.307496499998,,,,9951.083003899985,9951.08396126665,9951.09422509998,9951.09422509998,0.008541199989849702,0.020822799997404218,9953.367393199995,9954.303235699976,left,0,3.1943399000156205,None,None,,,,,,,,,,,,7_L2,001,2025-04-23_13h04.41.794,LangExperimentstress,2024.2.4,59.94754590269487,2025-04-23 13h04.51.434681 -0400,
sounds/28d_parar.wav,CVC,Stressed,Mismatch,past,num_2,0.0,0.2,0.8458860026041659,0.862313736979166,1.018194683159722,1.032797113715277,101,40,41,42,43,44,0,0.645886002604166,0.662313736979166,0.818194683159722,0.832797113715277,28d_parar.wav,,d,,5,5,0,,,,,None,28,left,0,5.0433487000118475,None,,,,,,,0,5,5,18,9954.326443099999,,,,,,,,,,,,,,,,,,,,,,,9959.390674199996,9959.390772999992,,,,9954.315529799991,9954.317342766652,9954.326443099999,9954.326443099999,0.008106499997666106,0.01990529999602586,9956.233895699988,9959.386521599983,left,0,5.0433487000118475,None,None,,,,,,,,,,,,7_L2,001,2025-04-23_13h04.41.794,LangExperimentstress,2024.2.4,59.94754590269487,2025-04-23 13h04.51.434681 -0400,
sounds/31d_tocar.wav,CVC,Stressed,Mismatch,past,num_2,0.0,0.2,0.8493931756807,0.8650112062639721,1.006860547391531,1.049162047334928,101,40,41,42,43,44,0,0.6493931756807,0.665011206263972,0.806860547391531,0.849162047334928,31d_tocar.wav,,d,,6,6,0,,,,,None,31,left,0,4.366491799999494,None,,,,,,,0,6,6,30,9959.41157689999,,,,,,,,,,,,,,,,,,,,,,,9963.790329699987,9963.790415999974,,,,9959.398487799976,9959.400772566649,9959.41157689999,9959.41157689999,0.007817300007445738,0.021948800014797598,9961.317788899993,9963.786830500001,left,0,4.366491799999494,None,None,,,,,,,,,,,,7_L2,001,2025-04-23_13h04.41.794,LangExperimentstress,2024.2.4,59.94754590269487,2025-04-23 13h04.51.434681 -0400,
sounds/10d_vender.wav,CVC,Stressed,Mismatch,past,num_2,0.0,0.2,0.832830209056713,0.8775468199411529,1.109501330306288,1.158928471023364,101,40,41,42,43,44,0,0.632830209056713,0.677546819941153,0.909501330306288,0.958928471023364,10d_vender.wav,,d,,7,7,0,,,,,None,10,right,0,1.935312800022075,None,,,,,,,0,7,7,12,9963.809710799978,,,,,,,,,,,,,,,,,,,,,,,9965.755809999973,9965.755899799988,,,,9963.798099999985,9963.800740866664,9963.809710799978,9963.809710799978,0.00774440000532195,0.020337299996754155,9965.717645099998,9965.753116899985,right,0,1.935312800022075,None,None,,,,,,,,,,,,7_L2,001,2025-04-23_13h04.41.794,LangExperimentstress,2024.2.4,59.94754590269487,2025-04-23 13h04.51.434681 -0400,
sounds/21a_mezclar.wav,CVC,Stressed,Match,present,num_1,0.0,0.2,0.78,0.9121902777777772,1.20214212962962,1.27,101,10,11,12,13,14,0,0.58,0.712190277777777,1.00214212962962,1.07,21a_mezclar.wav,,a,,8,8,0,,,,,None,21,left,0,2.7728341999754775,None,,,,,,,0,8,8,27,9965.7724247,,,,,,,,,,,,,,,,,,,,,,,9968.557648499991,9968.55773999999,,,,9965.761799699976,9965.76759186664,9965.7724247,9965.7724247,0.00591910001821816,0.017636700009461492,9967.8007582,9968.553483799973,left,0,2.7728341999754775,None,None,,,,,,,,,,,,7_L2,001,2025-04-23_13h04.41.794,LangExperimentstress,2024.2.4,59.94754590269487,2025-04-23 13h04.51.434681 -0400,
sounds/23a_tomar.wav,CVC,Stressed,Match,present,num_1,0.0,0.2,0.9453179615162032,0.95,1.08,1.158644495081018,101,10,11,12,13,14,0,0.745317961516203,0.75,0.88,0.958644495081018,23a_tomar.wav,,a,,9,9,0,,,,,space,23,left,0,3.728773899987573,None,11.634937900002114,None,,,,,0,9,9,39,9968.575717499974,,,,,,,,,,,,,,,,,,,,,,,9972.323714799975,9983.986580600002,,,,9968.564663199999,9968.567703566663,9968.575717499974,9968.575717499974,0.006953399977646768,0.019001099979504943,9970.484477099992,9972.3200794,left,0,3.728773899987573,None,space,9972.334066199983,9972.334066199983,11.634937900002114,None,,,,,,,,7_L2,001,2025-04-23_13h04.41.794,LangExperimentstress,2024.2.4,59.94754590269487,2025-04-23 13h04.51.434681 -0400,
sounds/15b_partir.wav,CVC,Unstressed,Mismatch,present,num_1,0.0,0.2,0.826865400752314,0.842973894883327,1.1042888772729471,1.120815958498066,101,20,21,22,23,24,0,0.626865400752314,0.642973894883327,0.904288877272947,0.920815958498066,15b_partir.wav,,b,,10,10,0,,,,,None,15,right,0,2.547633999987738,None,,,,,,,0,10,10,22,9984.004797000001,,,,,,,,,,,,,,,,,,,,,,,9986.573659899994,9986.5737602,,,,9983.993109699979,9984.001192066647,9984.004797000001,9984.004797000001,0.006505999976070598,0.019289599993498996,9986.067880999995,9986.57047419998,right,0,2.547633999987738,None,None,,,,,,,,,,,,7_L2,001,2025-04-23_13h04.41.794,LangExperimentstress,2024.2.4,59.94754590269487,2025-04-23 13h04.51.434681 -0400,
sounds/03b_limpiar.wav,CVC,Unstressed,Mismatch,present,num_1,0.0,0.2,0.8500000000000001,0.932367621527777,1.26878515625,1.35808463541666,101,20,21,22,23,24,0,0.65,0.732367621527777,1.06878515625,1.15808463541666,03b_limpiar.wav,,b,,11,11,0,,,,,None,3,right,0,6.306409300013911,None,,,,,,,0,11,11,4,9986.59101059998,,,,,,,,,,,,,,,,,,,,,,,9992.908634099993,9992.90871789999,,,,9986.580045399984,9986.584623366656,9986.59101059998,9986.59101059998,0.006288900010986254,0.018172400014009327,9988.734374399995,9992.904285699973,right,0,6.306409300013911,None,None,,,,,,,,,,,,7_L2,001,2025-04-23_13h04.41.794,LangExperimentstress,2024.2.4,59.94754590269487,2025-04-23 13h04.51.434681 -0400,
sounds/33b_culpar.wav,CVC,Unstressed,Mismatch,present,num_1,0.0,0.2,0.8606178431336959,0.869103678029107,1.109891641372144,1.131540467434179,101,20,21,22,23,24,0,0.660617843133696,0.669103678029107,0.909891641372144,0.931540467434179,33b_culpar.wav,,b,,12,12,0,,,,,None,33,left,0,2.8078212999971583,None,,,,,,,0,12,12,35,9992.928998499992,,,,,,,,,,,,,,,,,,,,,,,9995.757211499993,9995.757303099992,,,,9992.916711699974,9992.918246566642,9992.928998499992,9992.928998499992,0.00809410001966171,0.02149350001127459,9995.101722099993,9995.753893099987,left,0,2.8078212999971583,None,None,,,,,,,,,,,,7_L2,001,2025-04-23_13h04.41.794,LangExperimentstress,2024.2.4,59.94754590269487,2025-04-23 13h04.51.434681 -0400,
sounds/14b_borrar.wav,CVC,Unstressed,Mismatch,present,num_1,0.0,0.2,0.72,0.770187630208333,0.851961241319444,0.964399956597222,101,20,21,22,23,24,0,0.52,0.570187630208333,0.651961241319444,0.764399956597222,14b_borrar.wav,,b,,13,13,0,,,,,None,14,left,0,2.787931500002742,None,,,,,,,0,13,13,20,9995.774007699976,,,,,,,,,,,,,,,,,,,,,,,9998.573895299982,9998.573981099995,,,,9995.76352159999,9995.768563366644,9995.774007699976,9995.774007699976,0.006238900008611381,0.01727850001771003,9997.735030899988,9998.57052399998,left,0,2.787931500002742,None,None,,,,,,,,,,,,7_L2,001,2025-04-23_13h04.41.794,LangExperimentstress,2024.2.4,59.94754590269487,2025-04-23 13h04.51.434681 -0400,
sounds/29a_pesar.wav,CVC,Stressed,Match,present,num_1,0.0,0.2,0.91328417532552,0.925531286730473,1.03,1.150619522602117,101,10,11,12,13,14,0,0.71328417532552,0.725531286730473,0.83,0.950619522602117,29a_pesar.wav,,a,,14,14,0,,,,,None,29,right,0,2.760096000012709,None,,,,,,,0,14,14,32,9998.593243599986,,,,,,,,,,,,,,,,,,,,,,,10001.374971699988,10001.37505979999,,,,9998.581687599974,9998.58480466664,9998.593243599986,9998.593243599986,0.007730700017418712,0.020288600004278123,10000.5181859,10001.370534599992,right,0,2.760096000012709,None,None,,,,,,,,,,,,7_L2,001,2025-04-23_13h04.41.794,LangExperimentstress,2024.2.4,59.94754590269487,2025-04-23 13h04.51.434681 -0400,
sounds/16a_llevar.wav,CVC,Stressed,Match,present,num_1,0.0,0.2,0.929084516317274,0.964936524692279,1.08,1.131864014418682,101,10,11,12,13,14,0,0.729084516317274,0.764936524692279,0.88,0.931864014418682,16a_llevar.wav,,a,,15,15,0,,,,,None,16,right,0,4.134837099991273,None,,,,,,,0,15,15,21,10001.394601099979,,,,,,,,,,,,,,,,,,,,,,,10005.540772899985,10005.54084229999,,,,10001.382954699977,10001.384824766665,10001.394601099979,10001.394601099979,0.008053099998505786,0.020679900015238672,10003.3014731,10005.5371018,right,0,4.134837099991273,None,None,,,,,,,,,,,,7_L2,001,2025-04-23_13h04.41.794,LangExperimentstress,2024.2.4,59.94754590269487,2025-04-23 13h04.51.434681 -0400,
sounds/25b_ganar.wav,CVC,Unstressed,Mismatch,present,num_1,0.0,0.2,1.152097938368055,1.15990068760488,1.28904165650454,1.37272500435153,101,20,21,22,23,24,0,0.952097938368055,0.95990068760488,1.08904165650454,1.17272500435153,25b_ganar.wav,,b,,16,16,0,,,,,None,25,left,0,2.7050455999851692,None,,,,,,,0,16,16,8,10005.559644199995,,,,,,,,,,,,,,,,,,,,,,,10008.274927099992,10008.275016799977,,,,10005.547611499991,10005.551440366664,10005.559644199995,10005.559644199995,0.006809600017732009,0.020138699997914955,10007.902226099977,10008.270841199992,left,0,2.7050455999851692,None,None,,,,,,,,,,,,7_L2,001,2025-04-23_13h04.41.794,LangExperimentstress,2024.2.4,59.94754590269487,2025-04-23 13h04.51.434681 -0400,
sounds/13c_montar.wav,CVC,Unstressed,Match,past,num_2,0.0,0.2,0.8800000000000001,0.98,1.24543012152777,1.2594709201388798,101,30,31,32,33,34,0,0.68,0.78,1.04543012152777,1.05947092013888,13c_montar.wav,,c,,17,17,0,,,,,None,13,left,0,2.6348342999990564,None,,,,,,,0,17,17,33,10008.294754199975,,,,,,,,,,,,,,,,,,,,,,,10010.941605999978,10010.94169419998,,,,10008.282481299975,10008.285023266657,10008.294754199975,10008.294754199975,0.007491399999707937,0.02077649999409914,10010.58505319999,10010.937461199996,left,0,2.6348342999990564,None,None,,,,,,,,,,,,7_L2,001,2025-04-23_13h04.41.794,LangExperimentstress,2024.2.4,59.94754590269487,2025-04-23 13h04.51.434681 -0400,
sounds/32d_pulsar.wav,CVC,Stressed,Mismatch,past,num_2,0.0,0.2,0.796440212673611,0.8294641710069439,0.99,1.097783832465277,101,40,41,42,43,44,0,0.596440212673611,0.629464171006944,0.79,0.897783832465277,32d_pulsar.wav,,d,,18,18,0,,,,,None,32,right,0,3.403842400002759,None,,,,,,,0,18,18,24,10010.957541899988,,,,,,,,,,,,,,,,,,,,,,,10014.375433599984,10014.375574199978,,,,10010.947082300001,10010.95160626664,10010.957541899988,10010.957541899988,0.005399299989221618,0.016651099984301254,10012.768394399987,10014.37110009999,right,0,3.403842400002759,None,None,,,,,,,,,,,,7_L2,001,2025-04-23_13h04.41.794,LangExperimentstress,2024.2.4,59.94754590269487,2025-04-23 13h04.51.434681 -0400,
sounds/19a_marcar.wav,CVC,Stressed,Match,present,num_1,0.0,0.2,0.8400000000000001,0.97,1.245718359375,1.273519140625,101,10,11,12,13,14,0,0.64,0.77,1.045718359375,1.073519140625,19a_marcar.wav,,a,,19,19,0,,,,,space,19,left,0,2.528557899990119,None,11.568476899992675,None,,,,,0,19,19,19,10014.392163599987,,,,,,,,,,,,,,,,,,,,,,,10016.941521599976,10028.537675399974,,,,10014.381650399999,10014.385263166656,10014.392163599987,10014.392163599987,0.00608200000715442,0.017589000024599954,10016.302148599993,10016.937895799987,left,0,2.528557899990119,None,space,10016.951913899975,10016.951913899975,11.568476899992675,None,,,,,,,,7_L2,001,2025-04-23_13h04.41.794,LangExperimentstress,2024.2.4,59.94754590269487,2025-04-23 13h04.51.434681 -0400,
sounds/37b_pasar.wav,CVC,Unstressed,Mismatch,present,num_1,0.0,0.2,1.033132486979166,1.052087565104166,1.159499674479166,1.27702115885416,101,20,21,22,23,24,0,0.833132486979166,0.852087565104166,0.959499674479166,1.07702115885416,37b_pasar.wav,,b,,20,20,0,,,,,None,37,left,0,3.4442295000189915,None,,,,,,,0,20,20,23,10028.5575961,,,,,,,,,,,,,,,,,,,,,,,10032.009153099993,10032.009247899987,,,,10028.545085999998,10028.552066366658,10028.5575961,10028.5575961,0.007393299980321899,0.02110569999786094,10030.669486399973,10032.005108399986,left,0,3.4442295000189915,None,None,,,,,,,,,,,,7_L2,001,2025-04-23_13h04.41.794,LangExperimentstress,2024.2.4,59.94754590269487,2025-04-23 13h04.51.434681 -0400,
sounds/30a_fundar.wav,CVC,Stressed,Match,present,num_1,0.0,0.2,0.77,0.91,1.112685546875,1.12,101,10,11,12,13,14,0,0.57,0.71,0.912685546875,0.92,30a_fundar.wav,,a,,21,21,0,,,,,None,30,left,0,2.3956355999980588,None,,,,,,,0,21,21,36,10032.028775099985,,,,,,,,,,,,,,,,,,,,,,,10034.442339399975,10034.442423199973,,,,10032.016964699986,10032.01913996664,10032.028775099985,10032.028775099985,0.007780400017509237,0.02057950000744313,10034.185576499993,10034.438230699976,left,0,2.3956355999980588,None,None,,,,,,,,,,,,7_L2,001,2025-04-23_13h04.41.794,LangExperimentstress,2024.2.4,59.94754590269487,2025-04-23 13h04.51.434681 -0400,
sounds/11a_pegar.wav,CVC,Stressed,Match,present,num_1,0.0,0.2,0.8182808977343741,0.831294515585661,0.98,1.012063288108519,101,10,11,12,13,14,0,0.618280897734374,0.631294515585661,0.78,0.812063288108519,11a_pegar.wav,,a,,22,22,0,,,,,None,11,left,0,4.298771600006148,None,,,,,,,0,22,22,3,10034.462306499976,,,,,,,,,,,,,,,,,,,,,,,10038.77637799998,10038.776466699986,,,,10034.449443399993,10034.452373766664,10034.462306499976,10034.462306499976,0.007073999993735924,0.02108039997983724,10036.402484999999,10038.772252399998,left,0,4.298771600006148,None,None,,,,,,,,,,,,7_L2,001,2025-04-23_13h04.41.794,LangExperimentstress,2024.2.4,59.94754590269487,2025-04-23 13h04.51.434681 -0400,
sounds/24d_mirar.wav,CVC,Stressed,Mismatch,past,num_2,0.0,0.2,0.71,0.8119545789930551,0.9389863642939812,0.9746780743634248,101,40,41,42,43,44,0,0.51,0.611954578993055,0.738986364293981,0.774678074363425,24d_mirar.wav,,d,,23,23,0,,,,,None,24,right,0,2.1184006000112277,None,,,,,,,0,23,23,11,10038.793887799984,,,,,,,,,,,,,,,,,,,,,,,10040.925985199981,10040.926093999995,,,,10038.781938299973,10038.78614726666,10038.793887799984,10038.793887799984,0.005488199996761978,0.01857019998715259,10040.502746099985,10040.921847199992,right,0,2.1184006000112277,None,None,,,,,,,,,,,,7_L2,001,2025-04-23_13h04.41.794,LangExperimentstress,2024.2.4,59.94754590269487,2025-04-23 13h04.51.434681 -0400,
sounds/34c_formar.wav,CVC,Unstressed,Match,past,num_2,0.0,0.2,0.876373676215277,0.992687651909722,1.14,1.26319767795138,101,30,31,32,33,34,0,0.676373676215277,0.792687651909722,0.94,1.06319767795138,34c_formar.wav,,c,,24,24,0,,,,,None,34,right,0,2.504550699988613,None,,,,,,,0,24,24,2,10040.944329599995,,,,,,,,,,,,,,,,,,,,,,,10043.458684199984,10043.45876899999,,,,10040.93281529998,10040.935932266646,10040.944329599995,10040.944329599995,0.006737599993357435,0.01939579998725094,10043.185770799988,10043.45489329999,right,0,2.504550699988613,None,None,,,,,,,,,,,,7_L2,001,2025-04-23_13h04.41.794,LangExperimentstress,2024.2.4,59.94754590269487,2025-04-23 13h04.51.434681 -0400,
sounds/17d_tragar.wav,CVC,Stressed,Mismatch,past,num_2,0.0,0.2,1.070609360532407,1.117973654513888,1.30915316840277,1.35458539534397,101,40,41,42,43,44,0,0.870609360532407,0.917973654513888,1.10915316840277,1.15458539534397,17d_tragar.wav,,d,,25,25,0,,,,,None,17,left,0,5.883566100004828,None,,,,,,,0,25,25,26,10043.476928899996,,,,,,,,,,,,,,,,,,,,,,,10049.372498799989,10049.372529999993,,,,10043.464966699976,10043.469150266643,10043.476928899996,10043.476928899996,0.006218099995749071,0.019325400004163384,10045.786261499976,10049.370086199982,left,0,5.883566100004828,None,None,,,,,,,,,,,,7_L2,001,2025-04-23_13h04.41.794,LangExperimentstress,2024.2.4,59.94754590269487,2025-04-23 13h04.51.434681 -0400,
sounds/12a_matar.wav,CVC,Stressed,Match,present,num_1,0.0,0.2,0.8400000000000001,0.96,1.17307472511574,1.186647497106481,101,10,11,12,13,14,0,0.64,0.76,0.97307472511574,0.986647497106481,12a_matar.wav,,a,,26,26,0,,,,,None,12,left,0,2.9896209000144154,None,,,,,,,0,26,26,25,10049.388089899992,,,,,,,,,,,,,,,,,,,,,,,10052.392532400001,10052.392623099993,,,,10049.376875699993,10049.385498966647,10049.388089899992,10049.388089899992,0.004356999997980893,0.016765200009103864,10051.58646359999,10052.388613099989,left,0,2.9896209000144154,None,None,,,,,,,,,,,,7_L2,001,2025-04-23_13h04.41.794,LangExperimentstress,2024.2.4,59.94754590269487,2025-04-23 13h04.51.434681 -0400,
sounds/05a_fumar.wav,CVC,Stressed,Match,present,num_1,0.0,0.2,1.15,1.36712555700231,1.48,1.56308830295138,101,10,11,12,13,14,0,0.95,1.16712555700231,1.28,1.36308830295138,05a_fumar.wav,,a,,27,27,0,,,,,None,5,right,0,2.4614436000119895,None,,,,,,,0,27,27,38,10052.410662199982,,,,,,,,,,,,,,,,,,,,,,,10054.892622999992,10054.892710199987,,,,10052.399468699994,10052.402768666656,10052.410662199982,10052.410662199982,0.006872400001157075,0.019144500023685396,10054.769306099974,10054.888528799987,right,0,2.4614436000119895,None,None,,,,,,,,,,,,7_L2,001,2025-04-23_13h04.41.794,LangExperimentstress,2024.2.4,59.94754590269487,2025-04-23 13h04.51.434681 -0400,
sounds/02c_buscar.wav,CVC,Unstressed,Match,past,num_2,0.0,0.2,0.8700000000000001,1.07,1.26,1.40703946035879,101,30,31,32,33,34,0,0.67,0.87,1.06,1.20703946035879,02c_buscar.wav,,c,,28,28,0,,,,,None,2,right,0,2.6203923000139184,None,,,,,,,0,28,28,34,10054.909370699985,,,,,,,,,,,,,,,,,,,,,,,10057.542405699991,10057.54252029999,,,,10054.898393399984,10054.90275256665,10054.909370699985,10054.909370699985,0.005700100009562448,0.017461499985074624,10057.03624429999,10057.538548299985,right,0,2.6203923000139184,None,None,,,,,,,,,,,,7_L2,001,2025-04-23_13h04.41.794,LangExperimentstress,2024.2.4,59.94754590269487,2025-04-23 13h04.51.434681 -0400,
sounds/20c_cubrir.wav,CVC,Unstressed,Match,past,num_2,0.0,0.2,0.980138641742621,1.01,1.192436112212021,1.28412143493692,101,30,31,32,33,34,0,0.780138641742621,0.81,0.992436112212021,1.08412143493692,20c_cubrir.wav,,c,,29,29,0,,,,,space,20,right,0,2.338800600002287,None,14.921343099995283,None,,,,,0,29,29,31,10057.558483899978,,,,,,,,,,,,,,,,,,,,,,,10059.909086399974,10074.855759499973,,,,10057.54820629998,10057.552632066658,10057.558483899978,10057.558483899978,0.00569230000837706,0.016891200008103624,10059.686320499983,10059.905503799993,right,0,2.338800600002287,None,space,10059.91940849999,10059.91940849999,14.921343099995283,None,,,,,,,,7_L2,001,2025-04-23_13h04.41.794,LangExperimentstress,2024.2.4,59.94754590269487,2025-04-23 13h04.51.434681 -0400,
sounds/09c_cargar.wav,CVC,Unstressed,Match,past,num_2,0.0,0.2,0.81286744068287,0.8382251229745361,1.032634020543981,1.090594437210648,101,30,31,32,33,34,0,0.61286744068287,0.638225122974536,0.832634020543981,0.890594437210648,09c_cargar.wav,,c,,30,30,0,,,,,None,9,left,0,2.3177359999972396,None,,,,,,,0,30,30,28,10074.87459979998,,,,,,,,,,,,,,,,,,,,,,,10077.209578399983,10077.209667399991,,,,10074.863234499993,10074.869919666646,10074.87459979998,10074.87459979998,0.007453099999111146,0.019807300006505102,10076.820073199982,10077.20619929998,left,0,2.3177359999972396,None,None,,,,,,,,,,,,7_L2,001,2025-04-23_13h04.41.794,LangExperimentstress,2024.2.4,59.94754590269487,2025-04-23 13h04.51.434681 -0400,
sounds/04c_plantar.wav,CVC,Unstressed,Match,past,num_2,0.0,0.2,0.862877574458911,0.9343518689653568,1.20493812332404,1.21897569287037,101,30,31,32,33,34,0,0.662877574458911,0.734351868965357,1.00493812332404,1.01897569287037,04c_plantar.wav,,c,,31,31,0,,,,,None,4,right,0,3.2525839000009,None,,,,,,,0,31,31,9,10077.227941799996,,,,,,,,,,,,,,,,,,,,,,,10080.4917213,10080.4917899,,,,10077.216846999974,10077.220353366665,10077.227941799996,10077.227941799996,0.0072256000130437315,0.019324900000356138,10079.270167099981,10080.488802099979,right,0,3.2525839000009,None,None,,,,,,,,,,,,7_L2,001,2025-04-23_13h04.41.794,LangExperimentstress,2024.2.4,59.94754590269487,2025-04-23 13h04.51.434681 -0400,
sounds/07c_tumbar.wav,CVC,Unstressed,Match,past,num_2,0.0,0.2,0.9084024930273432,0.9247360728973012,1.143289673625005,1.154847989033482,101,30,31,32,33,34,0,0.708402493027343,0.724736072897301,0.943289673625005,0.954847989033482,07c_tumbar.wav,,c,,32,32,0,,,,,None,7,right,0,4.756938200007426,None,,,,,,,0,32,32,6,10080.508377199993,,,,,,,,,,,,,,,,,,,,,,,10085.276464999974,10085.276553899981,,,,10080.497437099984,10080.503414166658,10080.508377199993,10080.508377199993,0.005659000016748905,0.017412999994121492,10082.453430299996,10085.272431099991,right,0,4.756938200007426,None,None,,,,,,,,,,,,7_L2,001,2025-04-23_13h04.41.794,LangExperimentstress,2024.2.4,59.94754590269487,2025-04-23 13h04.51.434681 -0400,
sounds/01d_salvar.wav,CVC,Stressed,Mismatch,past,num_2,0.0,0.2,0.8500000000000001,0.996069502314814,1.23,1.29,101,40,41,42,43,44,0,0.65,0.796069502314814,1.03,1.09,01d_salvar.wav,,d,,33,33,0,,,,,None,1,right,0,3.4000685999926645,None,,,,,,,0,33,33,37,10085.29672459999,,,,,,,,,,,,,,,,,,,,,,,10088.71032719998,10088.710430699983,,,,10085.285307499988,10085.286624766657,10085.29672459999,10085.29672459999,0.008807799982605502,0.02121939999051392,10087.353376199986,10088.706314399984,right,0,3.4000685999926645,None,None,,,,,,,,,,,,7_L2,001,2025-04-23_13h04.41.794,LangExperimentstress,2024.2.4,59.94754590269487,2025-04-23 13h04.51.434681 -0400,
sounds/22d_dejar.wav,CVC,Stressed,Mismatch,past,num_2,0.0,0.2,0.8500000000000001,1.02,1.152543366608796,1.28794346788194,101,40,41,42,43,44,0,0.65,0.82,0.952543366608796,1.08794346788194,22d_dejar.wav,,d,,34,34,0,,,,,None,22,right,0,3.2809520000009798,None,,,,,,,0,34,34,14,10088.7278086,,,,,,,,,,,,,,,,,,,,,,,10092.027173099981,10092.027264099976,,,,10088.717308599997,10088.72038326666,10088.7278086,10088.7278086,0.006885899987537414,0.01827999998931773,10090.770140299981,10092.022950299986,right,0,3.2809520000009798,None,None,,,,,,,,,,,,7_L2,001,2025-04-23_13h04.41.794,LangExperimentstress,2024.2.4,59.94754590269487,2025-04-23 13h04.51.434681 -0400,
sounds/38b_pagar.wav,CVC,Unstressed,Mismatch,present,num_1,0.0,0.2,1.166737304687499,1.185271158854166,1.29521061197916,1.4055712890624898,101,20,21,22,23,24,0,0.966737304687499,0.985271158854166,1.09521061197916,1.20557128906249,38b_pagar.wav,,b,,35,35,0,,,,,None,38,left,0,2.5146290000120644,None,,,,,,,0,35,35,17,10092.046313699975,,,,,,,,,,,,,,,,,,,,,,,10094.576404499996,10094.576497199974,,,,10092.034646999993,10092.03702756664,10092.046313699975,10092.046313699975,0.007461500004865229,0.02005950000602752,10094.303950499976,10094.573197899997,left,0,2.5146290000120644,None,None,,,,,,,,,,,,7_L2,001,2025-04-23_13h04.41.794,LangExperimentstress,2024.2.4,59.94754590269487,2025-04-23 13h04.51.434681 -0400,
sounds/40c_gastar.wav,CVC,Unstressed,Match,past,num_2,0.0,0.2,0.8300000000000001,0.8400000000000001,1.163436328125,1.183149609375,101,30,31,32,33,34,0,0.63,0.64,0.963436328125,0.983149609375,40c_gastar.wav,,c,,36,36,0,,,,,None,40,right,0,5.1361567999992985,None,,,,,,,0,36,36,0,10094.592545299995,,,,,,,,,,,,,,,,,,,,,,,10099.74298369998,10099.743064099981,,,,10094.582694799989,10094.587130566655,10094.592545299995,10094.592545299995,0.006213199987541884,0.01669630000833422,10096.7032397,10099.739403999993,right,0,5.1361567999992985,None,None,,,,,,,,,,,,7_L2,001,2025-04-23_13h04.41.794,LangExperimentstress,2024.2.4,59.94754590269487,2025-04-23 13h04.51.434681 -0400,
sounds/35b_secar.wav,CVC,Unstressed,Mismatch,present,num_1,0.0,0.2,0.8990044921875,1.025708658854166,1.179689416956018,1.20652606336805,101,20,21,22,23,24,0,0.6990044921875,0.825708658854166,0.979689416956018,1.00652606336805,35b_secar.wav,,b,,37,37,0,,,,,None,35,left,0,3.927134199999273,None,,,,,,,0,37,37,5,10099.761123899982,,,,,,,,,,,,,,,,,,,,,,,10103.711669599987,10103.711811199988,,,,10099.749751299998,10099.753646966656,10099.761123899982,10099.761123899982,0.006715199997415766,0.019465699995635077,10101.904117599974,10103.707519399992,left,0,3.927134199999273,None,None,,,,,,,,,,,,7_L2,001,2025-04-23_13h04.41.794,LangExperimentstress,2024.2.4,59.94754590269487,2025-04-23 13h04.51.434681 -0400,
sounds/39b_manchar.wav,CVC,Unstressed,Mismatch,present,num_1,0.0,0.2,0.81,0.91203755787037,1.140584317129629,1.2139708912037,101,20,21,22,23,24,0,0.61,0.71203755787037,0.940584317129629,1.0139708912037,39b_manchar.wav,,b,,38,38,0,,,,,None,39,left,0,2.133469199994579,None,,,,,,,0,38,38,7,10103.731104599981,,,,,,,,,,,,,,,,,,,,,,,10105.895832399983,10105.89591749999,,,,10103.719864099985,10103.721689266651,10103.731104599981,10103.731104599981,0.008097499987343326,0.020547399995848536,,10105.872663799993,left,0,2.133469199994579,None,None,,,,,,,,,,,,7_L2,001,2025-04-23_13h04.41.794,LangExperimentstress,2024.2.4,59.94754590269487,2025-04-23 13h04.51.434681 -0400,
sounds/08d_filtrar.wav,CVC,Stressed,Mismatch,past,num_2,0.0,0.2,0.7526856695589441,0.87808115762362,1.118901843962886,1.172598812485867,101,40,41,42,43,44,0,0.552685669558944,0.67808115762362,0.918901843962886,0.972598812485867,08d_filtrar.wav,,d,,39,39,0,,,,,None,8,left,0,2.353255599999102,None,,,,,,,0,39,39,15,10105.911066599976,,,,,,,,,,,,,,,,,,,,,,,10108.27583649999,10108.275906399998,,,,10105.90099179998,10105.90358313331,10105.911066599976,10105.911066599976,0.005093999992823228,0.015904500003671274,10107.687237899983,10108.272981899994,left,0,2.353255599999102,None,None,,,,,,,,,,,,7_L2,001,2025-04-23_13h04.41.794,LangExperimentstress,2024.2.4,59.94754590269487,2025-04-23 13h04.51.434681 -0400,
,,,,,,,,,,,,,,,,,,,,,,,,,,,,,,,,,,,,,,,,,,,,,,,,,,,,,,,,,,,,,,,,,,,,,,,,,,,,,,,,,,,,,,,,,,,,,,,10108.276095599984,10108.286899599974,10108.286899599974,10112.4065595,space,4.105361099995207,None,7_L2,001,2025-04-23_13h04.41.794,LangExperimentstress,2024.2.4,59.94754590269487,2025-04-23 13h04.51.434681 -0400,
